// General information: 
//  MT Manager version: 2022.0.0 
//  XDA version: 2022.0.0 build 7085 rev 119802 built on 2022-11-08
// Device information: 
//  DeviceId: 037004D1
//  ProductCode: MTi-300-2A5G4
//  Firmware Version: 1.4.1
//  Hardware Version: 2.1.0
// Device settings: 
//  Filter Profile: general(39.16)
//  Option Flags: Orientation Smoother Disabled, Position/Velocity Smoother Disabled, Continuous Zero Rotation Update Disabled, AHS Disabled, ICC Disabled
// Coordinate system: ENU
PacketCounter	SampleTimeFine	Acc_X	Acc_Y	Acc_Z	Gyr_X	Gyr_Y	Gyr_Z	Roll	Pitch	Yaw	Latitude	Longitude	Altitude	Vel_E	Vel_N	Vel_U
23082	599944	-0.053962	-0.047367	9.808504	-0.005841	-0.003339	0.004193									
23083	599969	-0.071936	-0.058351	9.798532	-0.004032	-0.000489	-0.002965									
23084	599994	-0.082140	-0.041926	9.801465	-0.006031	-0.000012	-0.004235									
23085	600019	-0.069918	-0.055176	9.780312	-0.005361	-0.000902	-0.002962	-0.273662	0.412712	-30.909204						
23086	600044	-0.089142	-0.049822	9.786164	-0.004035	0.001371	-0.006279									
23087	600069	-0.080457	-0.094502	9.798114	-0.006497	-0.001563	-0.003341									
23088	600094	-0.075355	-0.052702	9.802389	-0.004563	0.000143	-0.003599									
23089	600119	-0.073864	-0.051583	9.791363	-0.000982	0.001563	-0.004043	-0.272651	0.413404	-30.914669						
23090	600144	-0.089771	-0.041685	9.809654	-0.008363	-0.002885	-0.003278									
23091	600169	-0.077020	-0.078119	9.815351	-0.005591	0.000252	-0.005196									
23092	600194	-0.101171	-0.059347	9.836088	-0.009403	-0.000066	-0.001147									
23093	600219	-0.072220	-0.047396	9.824906	-0.009882	0.001346	0.000584	-0.274083	0.413665	-30.905233						
23094	600244	-0.074351	-0.065385	9.822999	-0.006257	-0.000721	-0.002506									
23095	600269	-0.069529	-0.054471	9.797091	-0.003125	-0.002657	0.001374									
23096	600294	-0.085799	-0.061688	9.820181	-0.003757	-0.001056	0.000426									
23097	600319	-0.058819	-0.051525	9.827231	-0.007121	-0.001636	-0.002129	-0.273644	0.413240	-30.887434						
23098	600344	-0.096517	-0.053052	9.836053	-0.004487	0.001688	-0.003843									
23099	600369	-0.075162	-0.075702	9.814380	-0.008175	0.001496	-0.003137									
23100	600394	-0.068550	-0.058189	9.791326	-0.004221	0.001183	-0.003335									
23101	600419	-0.075178	-0.074204	9.813904	-0.001274	0.003102	-0.002053	-0.272922	0.414770	-30.882345						
23102	600444	-0.070499	-0.062850	9.815306	-0.003971	-0.002486	-0.002402									
23103	600469	-0.071068	-0.053724	9.808123	-0.004436	0.000088	-0.003147									
23104	600494	-0.071660	-0.071406	9.783684	-0.006062	0.001150	-0.004098									
23105	600519	-0.087725	-0.056262	9.805816	-0.003901	0.001444	-0.003330	-0.272234	0.415272	-30.885136						
23106	600544	-0.089783	-0.043143	9.811084	-0.009023	0.000262	0.000070									
23107	600569	-0.086100	-0.069071	9.804837	-0.007570	-0.001639	-0.001232									
23108	600594	-0.082471	-0.048474	9.797632	-0.004984	-0.000635	-0.000715									
23109	600619	-0.065776	-0.047206	9.791321	-0.002663	-0.001363	0.000356	-0.272377	0.415274	-30.887598						
23110	600644	-0.090545	-0.033490	9.834587	-0.003575	-0.000733	0.000426									
23111	600669	-0.079223	-0.062745	9.832142	-0.005053	0.001819	-0.000961									
23112	600694	-0.074363	-0.057514	9.806220	-0.005363	0.000767	-0.006914									
23113	600719	-0.085532	-0.056687	9.833608	-0.005928	0.005077	-0.003433	-0.271922	0.416779	-30.909700						
23114	600744	-0.070526	-0.058567	9.813392	-0.006767	-0.002849	-0.001176									
23115	600769	-0.075324	-0.054665	9.800474	-0.007880	0.002739	0.003400									
23116	600794	-0.057782	-0.055736	9.824835	-0.009449	-0.002383	0.001457									
23117	600819	-0.065715	-0.062287	9.809528	-0.008993	-0.002891	-0.000404	-0.273327	0.416498	-30.912884						
23118	600844	-0.069223	-0.051177	9.802358	-0.001444	0.004578	-0.002176									
23119	600869	-0.080596	-0.050992	9.804813	-0.007996	-0.000300	-0.002496									
23120	600894	-0.063991	-0.074793	9.796106	-0.002953	-0.002199	0.000295									
23121	600919	-0.058225	-0.048636	9.798468	-0.003625	0.001077	0.002348	-0.272287	0.417415	-30.905308						
23122	600944	-0.075457	-0.059838	9.827320	-0.009707	0.001600	-0.002745									
23123	600969	-0.102013	-0.046882	9.797245	-0.008854	-0.003405	-0.002448									
23124	600994	-0.086501	-0.082494	9.813486	-0.007094	0.001785	0.002046									
23125	601019	-0.076150	-0.059828	9.795199	-0.010103	0.000446	0.003013	-0.274082	0.417975	-30.914745						
23126	601044	-0.051216	-0.057999	9.758173	-0.009669	0.002111	-0.003704									
23127	601069	-0.090689	-0.035115	9.781854	-0.008835	0.000267	-0.001280									
23128	601094	-0.086396	-0.057984	9.823541	-0.007790	0.003833	0.000720									
23129	601119	-0.066667	-0.067109	9.816729	-0.006540	-0.000018	-0.002502	-0.275464	0.419349	-30.921179						
23130	601144	-0.076629	-0.071961	9.813910	-0.009219	0.002255	-0.002101									
23131	601169	-0.093447	-0.056115	9.817821	-0.010048	-0.003940	-0.002258									
23132	601194	-0.077193	-0.071716	9.826372	-0.012338	0.000206	-0.001211									
23133	601219	-0.086766	-0.058364	9.817784	-0.006279	-0.001742	0.001520	-0.277562	0.419366	-30.922056						
23134	601244	-0.064959	-0.048470	9.812403	-0.002925	-0.000906	0.002086									
23135	601269	-0.085388	-0.045551	9.790457	-0.003934	0.000671	-0.001486									
23136	601294	-0.075370	-0.058791	9.822051	-0.008588	0.000267	-0.003198									
23137	601319	-0.087320	-0.041318	9.790939	-0.002687	-0.002714	-0.000606	-0.276833	0.419465	-30.925150						
23138	601344	-0.067504	-0.068388	9.806190	-0.007200	-0.001381	-0.001100									
23139	601369	-0.081359	-0.054899	9.780370	-0.009349	-0.001997	-0.004043									
23140	601394	-0.086793	-0.055981	9.819221	-0.002190	-0.002064	0.000292									
23141	601419	-0.106331	-0.047836	9.798712	-0.005232	-0.000890	-0.001420	-0.276930	0.419003	-30.909004						
23142	601444	-0.062896	-0.072493	9.833974	-0.002708	-0.000404	-0.004691									
23143	601469	-0.087225	-0.050558	9.805322	-0.002538	-0.002959	0.003996									
23144	601494	-0.081587	-0.049504	9.809118	0.002584	-0.001718	0.000794									
23145	601519	-0.085804	-0.061570	9.812992	-0.004277	0.001115	-0.004300	-0.274597	0.418920	-30.913204						
23146	601544	-0.072872	-0.067896	9.834023	-0.002621	-0.005300	-0.005741									
23147	601569	-0.059131	-0.052420	9.793680	-0.004534	0.001369	-0.001098									
23148	601594	-0.092137	-0.048643	9.829803	-0.006068	-0.004385	0.001058									
23149	601619	-0.091270	-0.036787	9.800070	-0.006315	0.001344	0.001787	-0.274064	0.418388	-30.907522						
23150	601644	-0.061248	-0.043333	9.819097	-0.003865	-0.000037	-0.004233									
23151	601669	-0.074216	-0.068971	9.808617	-0.004236	0.000089	0.000566									
23152	601694	-0.074525	-0.065754	9.783219	-0.007226	-0.002605	-0.002451									
23153	601719	-0.061968	-0.059699	9.800397	-0.005032	0.004770	-0.005038	-0.273665	0.419198	-30.919245						
23154	601744	-0.057290	-0.049864	9.812371	-0.007731	-0.000554	-0.000969									
23155	601769	-0.065965	-0.076838	9.799467	-0.008331	-0.001657	-0.001615									
23156	601794	-0.088635	-0.056253	9.800069	-0.010164	0.002305	0.001809									
23157	601819	-0.079016	-0.029703	9.808158	-0.009583	0.001866	0.000139	-0.275449	0.419917	-30.897095						
23158	601844	-0.086760	-0.042245	9.789497	-0.003742	-0.003900	-0.003362									
23159	601869	-0.082778	-0.044678	9.827833	-0.006229	0.002630	-0.001468									
23160	601894	-0.081807	-0.036994	9.815364	-0.013973	0.001462	-0.000811									
23161	601919	-0.062270	-0.068729	9.799932	-0.009429	0.002961	-0.001648	-0.276915	0.420887	-30.919628						
23162	601944	-0.053878	-0.075729	9.771608	-0.006375	-0.003561	-0.006041									
23163	601969	-0.093469	-0.048196	9.796254	-0.008039	0.001574	0.000584									
23164	601994	-0.099531	-0.058613	9.793406	-0.004332	-0.000870	0.001964									
23165	602019	-0.074381	-0.047912	9.797591	-0.003959	-0.002669	0.001059	-0.276838	0.420575	-30.920778						
23166	602044	-0.075420	-0.039189	9.783696	-0.005811	0.001542	-0.000700									
23167	602069	-0.055294	-0.059272	9.811401	-0.004916	-0.000560	0.002477									
23168	602094	-0.096380	-0.041601	9.797709	-0.008360	-0.000755	-0.001730									
23169	602119	-0.086406	-0.045371	9.804837	-0.009179	0.000638	-0.005302	-0.277562	0.421185	-30.926134						
23170	602144	-0.077809	-0.047680	9.806238	-0.009333	-0.000197	-0.001732									
23171	602169	-0.070158	-0.052748	9.808116	-0.003283	0.001840	-0.003655									
23172	602194	-0.092227	-0.075422	9.809671	-0.008906	-0.001658	-0.000075									
23173	602219	-0.080618	-0.048107	9.805769	-0.005554	-0.003029	-0.004567	-0.278116	0.421216	-30.923969						
23174	602244	-0.096173	-0.051377	9.788590	-0.007688	-0.003836	-0.000918									
23175	602269	-0.094431	-0.050737	9.808242	-0.006644	-0.002456	0.001323									
23176	602294	-0.088805	-0.044828	9.801971	-0.002392	0.000253	-0.001043									
23177	602319	-0.103131	-0.052061	9.826021	-0.007874	0.002545	0.001039	-0.278314	0.421234	-30.942875						
23178	602344	-0.059940	-0.066795	9.804720	-0.003473	-0.002088	-0.002465									
23179	602369	-0.055835	-0.054447	9.809006	-0.002319	0.001599	-0.003850									
23180	602394	-0.112483	-0.048984	9.805449	-0.003684	-0.005692	-0.001006									
23181	602419	-0.070562	-0.053237	9.809560	-0.003091	-0.003818	0.000089	-0.276797	0.420315	-30.962231						
23182	602444	-0.069660	-0.061459	9.821069	-0.003603	0.001763	-0.007112									
23183	602469	-0.091986	-0.045129	9.790486	-0.001042	-0.002493	-0.002149									
23184	602494	-0.085653	-0.022995	9.803391	-0.004345	-0.002618	-0.000283									
23185	602519	-0.100255	-0.048436	9.811144	-0.004201	0.001195	0.001784	-0.275365	0.420494	-30.969536						
23186	602544	-0.070309	-0.036681	9.813380	-0.003187	-0.002719	0.001891									
23187	602569	-0.072186	-0.040914	9.809560	-0.004414	-0.000297	0.000431									
23188	602594	-0.072031	-0.056190	9.812921	-0.004897	0.003111	0.002694									
23189	602619	-0.088168	-0.047581	9.795744	-0.005017	-0.003858	-0.002845	-0.274521	0.420383	-30.940300						
23190	602644	-0.085262	-0.068826	9.819226	-0.007576	0.001071	0.003453									
23191	602669	-0.074742	-0.027005	9.799020	-0.004281	0.005494	-0.001395									
23192	602694	-0.090247	-0.045427	9.813004	-0.000556	0.000472	-0.001875									
23193	602719	-0.097647	-0.065598	9.820247	-0.004253	-0.001583	-0.000854	-0.273576	0.421644	-30.940516						
23194	602744	-0.081408	-0.065306	9.813440	-0.002065	-0.004122	-0.000493									
23195	602769	-0.082173	-0.045837	9.812491	-0.003667	0.002290	-0.001732									
23196	602794	-0.085263	-0.047886	9.785180	-0.006765	-0.001247	-0.003979									
23197	602819	-0.094546	-0.072683	9.790028	-0.000328	-0.000218	0.004643	-0.272071	0.421622	-30.924856						
23198	602844	-0.074709	-0.065179	9.806699	-0.003973	-0.001961	0.003743									
23199	602869	-0.084245	-0.040073	9.832637	-0.008777	0.000726	0.001669									
23200	602894	-0.067466	-0.080988	9.826326	-0.003529	-0.002213	0.000675									
23201	602919	-0.088608	-0.056047	9.793824	0.000176	0.001916	0.002545	-0.271043	0.421911	-30.935375						
23202	602944	-0.080558	-0.025646	9.824932	-0.005487	-0.002833	-0.001691									
23203	602969	-0.087767	-0.054021	9.812043	-0.005899	0.000192	0.001141									
23204	602994	-0.097195	-0.052388	9.795302	-0.001000	-0.001793	-0.004059									
23205	603019	-0.093062	-0.073687	9.789543	-0.006773	-0.002390	0.002989	-0.270454	0.421406	-30.931715						
23206	603044	-0.079702	-0.036845	9.785628	-0.003330	-0.000080	0.002864									
23207	603069	-0.087794	-0.044912	9.808685	-0.003611	-0.006215	-0.005482									
23208	603094	-0.084561	-0.040628	9.811062	-0.004934	-0.002170	-0.000535									
23209	603119	-0.079430	-0.066087	9.800970	-0.004978	-0.000949	-0.001106	-0.269537	0.420529	-30.928766						
23210	603144	-0.078748	-0.044382	9.809595	-0.006829	-0.004908	-0.000416									
23211	603169	-0.074908	0.000284	9.776962	-0.008658	0.003302	0.003473									
23212	603194	-0.087583	-0.028372	9.808201	-0.007306	0.000490	0.000319									
23213	603219	-0.081361	-0.056964	9.855633	-0.005043	0.001492	-0.001410	-0.270174	0.421024	-30.906366						
23214	603244	-0.087155	-0.042609	9.845595	-0.003025	0.001977	-0.001027									
23215	603269	-0.054146	-0.074946	9.811399	-0.006032	0.000054	-0.002950									
23216	603294	-0.084785	-0.057220	9.807229	-0.006288	-0.003743	0.000294									
23217	603319	-0.084206	-0.048791	9.850848	-0.002383	-0.004253	0.000028	-0.269382	0.420645	-30.905455						
23218	603344	-0.087190	-0.058273	9.818263	0.003242	-0.006533	0.001404									
23219	603369	-0.070631	-0.056128	9.808603	-0.007245	0.004609	0.000976									
23220	603394	-0.067625	-0.051499	9.787016	-0.009751	0.000890	-0.001398									
23221	603419	-0.070721	-0.043257	9.808599	-0.003235	-0.001441	-0.002263	-0.268483	0.420768	-30.904308						
23222	603444	-0.056978	-0.070540	9.803266	-0.003080	-0.000401	-0.000720									
23223	603469	-0.055941	-0.076848	9.807084	-0.009710	-0.004318	0.001511									
23224	603494	-0.064653	-0.070284	9.810007	-0.003794	-0.002161	-0.001952									
23225	603519	-0.082981	-0.040769	9.786135	-0.006783	-0.000279	-0.002119	-0.268497	0.420212	-30.899670						
23226	603544	-0.065714	-0.059700	9.799944	-0.006095	0.000252	-0.001037									
23227	603569	-0.077282	-0.057167	9.811037	-0.004375	0.002405	-0.002497									
23228	603594	-0.103229	-0.067318	9.800129	-0.005418	-0.000755	0.002675									
23229	603619	-0.094532	-0.053556	9.837961	-0.006105	-0.005352	0.000218	-0.268313	0.420190	-30.895525						
23230	603644	-0.063147	-0.078396	9.813831	-0.005764	-0.002120	0.001383									
23231	603669	-0.048234	-0.056381	9.813283	-0.006333	0.001791	-0.002369									
23232	603694	-0.046551	-0.066138	9.801291	-0.005379	-0.002435	-0.000283									
23233	603719	-0.083041	-0.074942	9.788525	-0.004363	-0.002623	-0.005786	-0.268113	0.419887	-30.892887						
23234	603744	-0.084481	-0.049703	9.812509	-0.006725	-0.000085	-0.001477									
23235	603769	-0.075279	-0.068367	9.832597	-0.001770	-0.003013	0.004695									
23236	603794	-0.062488	-0.086167	9.795623	-0.003764	0.000933	-0.001034									
23237	603819	-0.075962	-0.040048	9.811975	-0.003384	-0.004782	0.001559	-0.267027	0.419403	-30.907713						
23238	603844	-0.074269	-0.059973	9.807664	-0.007263	-0.005050	0.000030									
23239	603869	-0.075357	-0.060279	9.828756	-0.007261	-0.001712	-0.005962									
23240	603894	-0.068152	-0.053136	9.802835	-0.006238	-0.003619	-0.003867									
23241	603919	-0.086127	-0.058558	9.801012	-0.006141	-0.006643	-0.002411	-0.267556	0.417425	-30.902628						
23242	603944	-0.090876	-0.064857	9.801035	-0.010268	-0.000598	0.000067									
23243	603969	-0.109495	-0.033553	9.819823	-0.008249	-0.002366	-0.004365									
23244	603994	-0.095746	-0.072545	9.835575	-0.009440	-0.003026	-0.001742									
23245	604019	-0.095771	-0.025251	9.820217	-0.001846	-0.000308	0.005548	-0.268481	0.416970	-30.884867						
23246	604044	-0.071862	-0.053783	9.780794	-0.002509	-0.000134	-0.000854									
23247	604069	-0.063819	-0.062565	9.804260	-0.003067	0.001468	-0.000393									
23248	604094	-0.061587	-0.055747	9.821497	-0.008693	0.000146	0.001857									
23249	604119	-0.074161	-0.067857	9.799994	-0.003529	-0.000413	-0.002640	-0.267699	0.417601	-30.885044						
23250	604144	-0.072304	-0.075248	9.814368	-0.008371	0.003555	-0.002734									
23251	604169	-0.094798	-0.025699	9.814948	-0.008836	-0.000128	-0.005117									
23252	604194	-0.055107	-0.078328	9.822905	0.000677	-0.000347	-0.003168									
23253	604219	-0.056371	-0.080956	9.800385	-0.004685	-0.001842	0.002150	-0.267413	0.418247	-30.883499						
23254	604244	-0.088407	-0.044602	9.817796	-0.005841	0.000516	0.001977									
23255	604269	-0.090827	-0.028122	9.791916	-0.007336	0.001521	0.001286									
23256	604294	-0.070356	-0.079027	9.822017	0.000857	0.000437	0.000294									
23257	604319	-0.070860	-0.064525	9.803808	-0.001560	-0.004511	-0.005482	-0.266068	0.418422	-30.877104						
23258	604344	-0.102615	-0.038778	9.796768	-0.003816	-0.001448	-0.002578									
23259	604369	-0.077714	-0.052814	9.808630	-0.002094	-0.003549	-0.004129									
23260	604394	-0.078434	-0.078184	9.818226	-0.002471	-0.001226	0.001760									
23261	604419	-0.081937	-0.067371	9.823995	-0.003628	0.000934	-0.001350	-0.264467	0.418152	-30.885105						
23262	604444	-0.095186	-0.056082	9.787637	-0.004321	-0.001782	-0.004882									
23263	604469	-0.080938	-0.059443	9.800500	-0.004354	-0.002162	0.001061									
23264	604494	-0.073784	-0.063301	9.809577	-0.005889	-0.001991	0.003114									
23265	604519	-0.089690	-0.084343	9.808705	-0.005658	-0.001805	-0.003920	-0.264035	0.417521	-30.886030						
23266	604544	-0.085881	-0.067148	9.837925	-0.003777	-0.000352	-0.001428									
23267	604569	-0.079422	-0.068983	9.809113	0.000137	-0.003178	-0.001645									
23268	604594	-0.046698	-0.058146	9.805119	-0.005656	-0.001539	-0.000279									
23269	604619	-0.050291	-0.104894	9.788381	-0.007112	0.000107	-0.000645	-0.263057	0.417288	-30.886726						
23270	604644	-0.072012	-0.053219	9.807158	-0.002836	-0.002015	-0.001884									
23271	604669	-0.068114	-0.060813	9.809540	-0.006732	-0.001557	0.001203									
23272	604694	-0.079824	-0.035253	9.804315	-0.002499	-0.002843	-0.003555									
23273	604719	-0.072861	-0.049162	9.783201	-0.008267	-0.001913	-0.002381	-0.262644	0.416567	-30.886034						
23274	604744	-0.094973	-0.032630	9.775644	-0.006406	-0.000016	-0.003338									
23275	604769	-0.113061	-0.046064	9.799700	-0.005926	0.001097	0.001277									
23276	604794	-0.079367	-0.059098	9.779400	-0.004648	-0.003265	-0.000031									
23277	604819	-0.062706	-0.066589	9.788436	-0.002867	0.000820	-0.002764	-0.262162	0.416854	-30.890043						
23278	604844	-0.084123	-0.064011	9.788537	-0.003228	-0.001568	-0.000341									
23279	604869	-0.088888	-0.050920	9.825466	-0.006084	0.002383	0.002755									
23280	604894	-0.087005	-0.018320	9.774637	-0.006963	-0.000735	-0.002821									
23281	604919	-0.082614	-0.041508	9.808648	-0.002645	-0.004068	-0.000997	-0.261545	0.416769	-30.893932						
23282	604944	-0.080589	-0.046570	9.795700	-0.009510	-0.000840	-0.001599									
23283	604969	-0.074989	-0.053683	9.829710	-0.009090	-0.001666	0.000755									
23284	604994	-0.073828	-0.058972	9.802871	-0.007544	0.000040	0.004277									
23285	605019	-0.109302	-0.055056	9.827010	-0.011329	0.002408	-0.001961	-0.263577	0.417240	-30.892611						
23286	605044	-0.102018	-0.051246	9.804440	-0.008909	-0.003466	0.000045									
23287	605069	-0.067346	-0.052897	9.815781	-0.006716	0.002111	0.002752									
23288	605094	-0.044476	-0.055144	9.828125	-0.006224	0.000447	-0.000453									
23289	605119	-0.071662	-0.051109	9.822989	-0.003099	-0.001489	0.003235	-0.263812	0.417378	-30.890722						
23290	605144	-0.072996	-0.059060	9.814846	-0.001816	0.004061	-0.002305									
23291	605169	-0.071870	-0.068475	9.811001	-0.006312	-0.001240	-0.005007									
23292	605194	-0.085899	-0.057569	9.830731	-0.003539	-0.001825	0.001127									
23293	605219	-0.072047	-0.078597	9.787517	-0.007646	-0.001122	0.000308	-0.263249	0.417827	-30.886358						
23294	605244	-0.100203	-0.041512	9.794844	-0.002119	-0.000180	0.003693									
23295	605269	-0.076595	-0.065867	9.818220	-0.009410	-0.007661	0.002132									
23296	605294	-0.069246	-0.051002	9.815782	-0.006492	-0.001304	-0.002190									
23297	605319	-0.068339	-0.052931	9.820095	-0.006157	0.004698	0.001936	-0.263376	0.417681	-30.889252						
23298	605344	-0.063720	-0.074762	9.825342	-0.004125	-0.003767	-0.000931									
23299	605369	-0.091166	-0.036064	9.786171	-0.003067	0.001267	-0.000712									
23300	605394	-0.071701	-0.048168	9.814350	-0.006582	0.001590	-0.003906									
23301	605419	-0.079515	-0.055176	9.799527	-0.008507	-0.002308	-0.001419	-0.263245	0.417700	-30.893059						
23302	605444	-0.080188	-0.054479	9.820634	-0.001740	-0.000185	0.001064									
23303	605469	-0.050422	-0.053648	9.786926	-0.008433	-0.000629	-0.002690									
23304	605494	-0.067932	-0.035553	9.798991	-0.006999	0.000755	-0.000454									
23305	605519	-0.074280	-0.056412	9.794240	-0.006923	0.000498	0.001788	-0.263362	0.418237	-30.889835						
23306	605544	-0.083819	-0.061457	9.806751	-0.004089	0.001574	0.001405									
23307	605569	-0.104243	-0.030942	9.810198	-0.006385	-0.000454	0.001973									
23308	605594	-0.094085	-0.042064	9.802960	-0.003949	0.003120	0.000322									
23309	605619	-0.089708	-0.040892	9.790003	-0.007153	-0.000605	-0.002439	-0.263119	0.419236	-30.888531						
23310	605644	-0.074382	-0.059892	9.804306	-0.006136	0.005655	-0.001644									
23311	605669	-0.066772	-0.054715	9.810500	-0.008638	-0.002049	-0.002319									
23312	605694	-0.088261	-0.070072	9.774177	-0.007814	-0.001776	-0.000656									
23313	605719	-0.064147	-0.060837	9.780293	-0.008939	-0.000905	-0.006086	-0.264321	0.419858	-30.900093						
23314	605744	-0.069286	-0.078776	9.797565	-0.008598	0.000790	-0.000253									
23315	605769	-0.071575	-0.050257	9.799020	-0.006293	0.002961	0.003015									
23316	605794	-0.066020	-0.068108	9.790842	-0.006007	-0.000387	-0.000273									
23317	605819	-0.085783	-0.048475	9.793329	-0.005545	-0.002696	0.002791	-0.264767	0.420422	-30.891218						
23318	605844	-0.073220	-0.046403	9.822044	-0.006591	0.004175	-0.000241									
23319	605869	-0.080809	-0.059696	9.783719	-0.008859	-0.002824	0.002031									
23320	605894	-0.087916	-0.029061	9.799094	-0.001147	-0.004674	0.002453									
23321	605919	-0.082240	-0.046108	9.823995	-0.007193	0.002803	-0.000884	-0.264843	0.420839	-30.895712						
23322	605944	-0.092506	-0.056513	9.814940	-0.010239	-0.001949	-0.003269									
23323	605969	-0.082836	-0.063843	9.805779	-0.009249	0.000896	-0.003384									
23324	605994	-0.074007	-0.045189	9.805733	-0.004223	-0.000887	-0.005010									
23325	606019	-0.067619	-0.062084	9.800428	-0.001931	0.001608	-0.002696	-0.265194	0.421253	-30.893421						
23326	606044	-0.077322	-0.080128	9.792821	-0.003919	0.001831	-0.002882									
23327	606069	-0.067943	-0.059081	9.787010	-0.006618	-0.003421	0.000615									
23328	606094	-0.092425	-0.041638	9.774666	-0.007504	-0.001384	0.001137									
23329	606119	-0.105832	-0.052765	9.811652	-0.004491	-0.004221	-0.000608	-0.265089	0.420697	-30.891222						
23330	606144	-0.102246	-0.038420	9.808266	-0.001103	-0.000702	-0.007185									
23331	606169	-0.059310	-0.069106	9.796082	-0.008532	-0.001335	-0.000584									
23332	606194	-0.070165	-0.052879	9.821529	0.001296	-0.003473	0.001043									
23333	606219	-0.077416	-0.055656	9.835953	-0.003739	0.000094	-0.005645	-0.263489	0.420364	-30.877205						
23334	606244	-0.094350	-0.045488	9.777563	-0.004493	0.001818	-0.004798									
23335	606269	-0.079511	-0.063360	9.810561	-0.003384	-0.002728	-0.001185									
23336	606294	-0.088657	-0.058738	9.809171	-0.006722	0.002240	-0.000635									
23337	606319	-0.074748	-0.063268	9.806703	-0.006194	-0.001046	-0.005198	-0.263149	0.420880	-30.881195						
23338	606344	-0.083066	-0.031788	9.788520	-0.009243	-0.003615	-0.005390									
23339	606369	-0.079341	-0.030835	9.791862	-0.006168	-0.001417	0.001773									
23340	606394	-0.089692	-0.044192	9.789990	-0.005378	0.001675	-0.002816									
23341	606419	-0.100314	-0.047357	9.827439	-0.012161	-0.001463	-0.000897	-0.264544	0.420663	-30.881212						
23342	606444	-0.076580	-0.057301	9.788017	-0.007881	-0.002174	-0.006095									
23343	606469	-0.086631	-0.023921	9.800047	-0.007348	-0.002608	-0.003667									
23344	606494	-0.099870	-0.068110	9.792934	-0.005093	0.001049	0.000764									
23345	606519	-0.080157	-0.064166	9.827350	-0.012179	0.001235	-0.000823	-0.265882	0.420786	-30.886734						
23346	606544	-0.056529	-0.039573	9.821945	-0.007358	-0.001954	0.002161									
23347	606569	-0.082045	-0.045568	9.796190	-0.001964	0.000708	-0.001484									
23348	606594	-0.082498	-0.051469	9.802900	-0.008284	-0.001010	-0.000587									
23349	606619	-0.076820	-0.059231	9.819655	-0.006625	0.001013	0.000505	-0.266023	0.421097	-30.891905						
23350	606644	-0.089098	-0.055753	9.799104	-0.006282	-0.001931	0.001836									
23351	606669	-0.071419	-0.057294	9.792786	-0.005935	-0.000709	-0.000720									
23352	606694	-0.061571	-0.080576	9.802806	-0.004005	-0.003444	0.000225									
23353	606719	-0.088288	-0.051634	9.810614	-0.005575	0.002457	0.003459	-0.265811	0.421068	-30.895245						
23354	606744	-0.076838	-0.056904	9.823494	-0.007744	-0.000170	-0.001924									
23355	606769	-0.065073	-0.041444	9.816236	-0.005621	-0.000386	-0.000209									
23356	606794	-0.076390	-0.050487	9.807192	-0.005887	0.003923	-0.002675									
23357	606819	-0.072037	-0.054193	9.805248	-0.007534	0.001644	-0.000513	-0.266326	0.422273	-30.902554						
23358	606844	-0.067208	-0.071719	9.839747	-0.005920	-0.001037	-0.000979									
23359	606869	-0.087839	-0.050659	9.812044	-0.005138	0.002198	-0.002877									
23360	606894	-0.051255	-0.064103	9.788369	-0.005780	-0.001417	0.001517									
23361	606919	-0.058562	-0.061251	9.810936	-0.007822	-0.003381	0.002086	-0.266503	0.422167	-30.865959						
23362	606944	-0.071326	-0.051305	9.833536	-0.006190	0.005464	-0.001901									
23363	606969	-0.084856	-0.057210	9.809630	-0.004649	0.000857	-0.001092									
23364	606994	-0.066723	-0.053057	9.800423	-0.002766	-0.000404	-0.003281									
23365	607019	-0.081670	-0.073608	9.793322	-0.007638	-0.001253	0.001393	-0.266224	0.423328	-30.876081						
23366	607044	-0.100034	-0.039433	9.840385	-0.009115	0.000967	-0.002101									
23367	607069	-0.073040	-0.042758	9.803820	-0.005725	-0.001416	-0.001743									
23368	607094	-0.066274	-0.060354	9.814334	-0.003327	-0.000477	-0.001621									
23369	607119	-0.058367	-0.035371	9.795110	-0.008838	0.000335	-0.000574	-0.266759	0.423699	-30.865458						
23370	607144	-0.072719	-0.035428	9.820116	-0.005041	-0.003080	-0.002392									
23371	607169	-0.080094	-0.058204	9.813929	-0.004844	-0.001086	-0.002836									
23372	607194	-0.076560	-0.062031	9.786574	-0.008005	-0.000048	-0.005057									
23373	607219	-0.058988	-0.058123	9.790323	-0.011043	0.001124	-0.004275	-0.267589	0.423732	-30.871044						
23374	607244	-0.078586	-0.037083	9.828292	-0.008364	0.001828	0.000261									
23375	607269	-0.081921	-0.062043	9.812014	-0.008257	-0.000441	-0.004545									
23376	607294	-0.080481	-0.062073	9.819198	-0.005578	-0.006637	-0.006250									
23377	607319	-0.073490	-0.051992	9.815322	-0.008455	-0.001785	-0.001995	-0.268666	0.423208	-30.880184						
23378	607344	-0.092091	-0.039099	9.793365	-0.008456	-0.003593	-0.000279									
23379	607369	-0.072981	-0.052003	9.815323	-0.008133	-0.004299	-0.004311									
23380	607394	-0.091923	-0.038844	9.838430	-0.009961	0.000003	0.004862									
23381	607419	-0.071867	-0.056281	9.791345	-0.002040	-0.003098	-0.002341	-0.269430	0.422110	-30.879036						
23382	607444	-0.058682	-0.047648	9.792715	-0.004843	-0.001147	-0.002901									
23383	607469	-0.081574	-0.056268	9.813933	-0.004673	0.002150	0.001596									
23384	607494	-0.087340	-0.053159	9.817312	-0.006196	0.001273	-0.002749									
23385	607519	-0.065274	-0.068607	9.824388	-0.004947	0.000271	0.000623	-0.269052	0.422924	-30.864805						
23386	607544	-0.094958	-0.051815	9.821659	-0.001934	-0.002578	-0.004508									
23387	607569	-0.072558	-0.062256	9.834020	-0.007932	-0.000171	-0.002697									
23388	607594	-0.092176	-0.046972	9.810625	-0.010096	0.001852	-0.001079									
23389	607619	-0.069254	-0.083637	9.806679	-0.010665	-0.000480	-0.002049	-0.270108	0.423176	-30.852850						
23390	607644	-0.084470	-0.066322	9.781349	-0.007045	-0.006139	-0.001574									
23391	607669	-0.062215	-0.079426	9.818624	-0.008121	-0.002429	-0.002831									
23392	607694	-0.076515	-0.045258	9.811502	0.000012	0.004867	-0.000507									
23393	607719	-0.078915	-0.076696	9.816795	-0.002299	-0.000775	0.000040	-0.269270	0.422980	-30.836563						
23394	607744	-0.117936	-0.039017	9.803081	-0.002600	0.000368	-0.006670									
23395	607769	-0.106893	-0.051154	9.825558	-0.005122	-0.002502	-0.002068									
23396	607794	-0.090233	-0.038662	9.798627	-0.008382	-0.002040	-0.000270									
23397	607819	-0.085588	-0.064681	9.798611	-0.005256	-0.004306	-0.002463	-0.269022	0.422266	-30.855072						
23398	607844	-0.107398	-0.041845	9.812130	-0.000864	-0.003576	0.002779									
23399	607869	-0.061562	-0.057505	9.817659	-0.001618	-0.000127	-0.003032									
23400	607894	-0.081443	-0.047758	9.783716	-0.002526	-0.003938	-0.002280									
23401	607919	-0.062642	-0.077173	9.795623	-0.004727	0.003101	-0.004606	-0.267085	0.422071	-30.845516						
23402	607944	-0.086784	-0.062630	9.819709	-0.004993	0.001682	-0.001606									
23403	607969	-0.078656	-0.072430	9.843634	-0.007229	-0.001884	0.003500									
23404	607994	-0.074420	-0.049886	9.801424	-0.005703	-0.000064	-0.002636									
23405	608019	-0.090025	-0.047926	9.786642	-0.004573	-0.003260	0.001189	-0.266980	0.422058	-30.852573						
23406	608044	-0.086038	-0.052018	9.838401	-0.007316	0.000684	-0.000317									
23407	608069	-0.065983	-0.061335	9.779810	-0.006662	-0.003879	0.001250									
23408	608094	-0.060089	-0.059026	9.818130	-0.010175	-0.001881	-0.001737									
23409	608119	-0.070466	-0.063077	9.801893	-0.003277	0.001779	-0.003652	-0.267580	0.422055	-30.849274						
23410	608144	-0.071527	-0.080959	9.789435	-0.005239	-0.000894	-0.002763									
23411	608169	-0.087896	-0.050888	9.824989	-0.006926	0.000365	0.000124									
23412	608194	-0.085299	-0.053999	9.813470	-0.007130	-0.005630	-0.003360									
23413	608219	-0.093858	-0.052867	9.793376	-0.007197	-0.001252	-0.002444	-0.268053	0.421473	-30.853067						
23414	608244	-0.083389	-0.051389	9.797638	-0.008935	-0.002371	0.001904									
23415	608269	-0.072447	-0.058527	9.813887	-0.001279	-0.000823	-0.000665									
23416	608294	-0.075466	-0.039518	9.810056	-0.000454	-0.006996	-0.003450									
23417	608319	-0.078786	-0.041005	9.806234	-0.005446	-0.004573	-0.005023	-0.267048	0.419860	-30.869276						
23418	608344	-0.053935	-0.057493	9.817629	-0.007451	0.000934	0.000572									
23419	608369	-0.057651	-0.059769	9.809011	-0.004749	0.000279	0.001843									
23420	608394	-0.068243	-0.059091	9.819131	-0.005795	0.002959	0.000261									
23421	608419	-0.088003	-0.058369	9.786152	-0.006229	-0.001821	-0.004241	-0.267196	0.420699	-30.883223						
23422	608444	-0.039266	-0.079720	9.797422	-0.005279	0.000450	-0.004686									
23423	608469	-0.064804	-0.053061	9.798974	-0.005116	-0.002828	-0.003037									
23424	608494	-0.077694	-0.050336	9.798569	-0.005567	-0.002451	-0.002201									
23425	608519	-0.079659	-0.061877	9.834539	-0.006606	-0.001815	-0.001355	-0.267100	0.420191	-30.869320						
23426	608544	-0.075921	-0.049982	9.809106	-0.004297	0.002025	0.001338									
23427	608569	-0.089802	-0.035239	9.792875	-0.006337	0.001787	-0.003321									
23428	608594	-0.085107	-0.044072	9.815382	-0.005634	0.002070	0.001727									
23429	608619	-0.079353	-0.026379	9.784192	-0.001137	-0.000945	0.002597	-0.266254	0.421366	-30.861378						
23430	608644	-0.079071	-0.052612	9.790425	-0.005087	0.002913	0.000136									
23431	608669	-0.086482	-0.070439	9.800053	-0.006987	-0.003827	-0.001116									
23432	608694	-0.080445	-0.064302	9.809612	-0.005092	-0.001343	-0.001615									
23433	608719	-0.067108	-0.066976	9.810030	-0.003590	-0.000279	0.001833	-0.265889	0.421463	-30.851580						
23434	608744	-0.091197	-0.048822	9.813022	-0.005801	0.002758	-0.003897									
23435	608769	-0.070976	-0.066267	9.818671	-0.007686	-0.000036	-0.002882									
23436	608794	-0.067196	-0.084687	9.783188	-0.010739	0.002109	0.000528									
23437	608819	-0.068091	-0.056372	9.796600	-0.005504	-0.000060	0.000951	-0.266825	0.422634	-30.859257						
23438	608844	-0.078414	-0.042283	9.828770	-0.007288	-0.003950	0.002852									
23439	608869	-0.092486	-0.054106	9.815413	-0.006419	-0.003743	-0.001496									
23440	608894	-0.066497	-0.058373	9.777421	-0.003988	-0.002101	-0.002332									
23441	608919	-0.087309	-0.056458	9.817313	-0.006306	-0.000975	-0.000846	-0.266932	0.421569	-30.859076						
23442	608944	-0.078959	-0.071018	9.814400	-0.003856	-0.002155	-0.000924									
23443	608969	-0.070686	-0.056496	9.834492	-0.005940	-0.002635	0.000487									
23444	608994	-0.089337	-0.043202	9.818279	-0.007311	-0.001381	-0.000009									
23445	609019	-0.074336	-0.064374	9.813891	-0.010432	0.002098	-0.005104	-0.267546	0.421447	-30.852346						
23446	609044	-0.076154	-0.059273	9.790889	-0.012498	0.003292	-0.000037									
23447	609069	-0.063250	-0.072161	9.810484	-0.003783	-0.000092	0.001578									
23448	609094	-0.095196	-0.053232	9.781401	-0.009727	-0.001673	0.002038									
23449	609119	-0.068115	-0.051183	9.794204	-0.010981	-0.002731	-0.000201	-0.269505	0.421751	-30.849096						
23450	609144	-0.064698	-0.063042	9.799944	-0.006978	0.000112	0.001019									
23451	609169	-0.060493	-0.070573	9.831082	-0.004682	-0.001711	0.003879									
23452	609194	-0.064864	-0.052291	9.811449	-0.005601	-0.003086	0.001188									
23453	609219	-0.078692	-0.051541	9.813906	-0.003453	-0.004530	0.001940	-0.269143	0.420950	-30.867245						
23454	609244	-0.080977	-0.063382	9.809135	-0.005534	-0.001277	0.000556									
23455	609269	-0.066782	-0.064343	9.826802	-0.003897	0.001714	0.002040									
23456	609294	-0.093867	-0.055065	9.811592	-0.008346	-0.005260	-0.001182									
23457	609319	-0.080515	-0.062521	9.814404	-0.009042	-0.001413	-0.002187	-0.269646	0.420512	-30.854519						
23458	609344	-0.097864	-0.037751	9.793877	-0.008924	-0.001018	0.000374									
23459	609369	-0.084311	-0.038222	9.834085	-0.007868	0.001957	-0.002681									
23460	609394	-0.067584	-0.061757	9.806185	-0.007054	-0.003949	-0.000735									
23461	609419	-0.091534	-0.047288	9.801991	-0.005524	-0.003466	0.002021	-0.270525	0.420072	-30.860104						
23462	609444	-0.068905	-0.073122	9.806673	-0.005782	0.000583	0.000249									
23463	609469	-0.061094	-0.050329	9.811425	-0.004064	-0.001709	-0.002521									
23464	609494	-0.052863	-0.068000	9.826732	-0.004253	-0.003642	0.000028									
23465	609519	-0.088742	-0.054946	9.812045	-0.002760	0.001596	-0.003205	-0.269606	0.420070	-30.848103						
23466	609544	-0.074222	-0.063113	9.795671	-0.007917	-0.000618	-0.001869									
23467	609569	-0.061038	-0.080780	9.785550	-0.005251	-0.002313	-0.002521									
23468	609594	-0.074270	-0.061965	9.811012	-0.010899	-0.003509	-0.003727									
23469	609619	-0.099351	-0.037540	9.811621	-0.008805	-0.002816	0.000116	-0.270989	0.419209	-30.844568						
23470	609644	-0.069574	-0.054078	9.798042	-0.008504	0.000349	0.004925									
23471	609669	-0.076097	-0.022211	9.791840	-0.002050	-0.002444	0.001372									
23472	609694	-0.061912	-0.062196	9.806638	-0.008692	0.001751	-0.001334									
23473	609719	-0.059415	-0.046953	9.837787	-0.007838	-0.001137	-0.002512	-0.271525	0.419450	-30.828922						
23474	609744	-0.074029	-0.056008	9.830187	-0.006449	-0.000720	-0.000910									
23475	609769	-0.079147	-0.042292	9.795685	-0.005437	-0.006889	-0.004399									
23476	609794	-0.079905	-0.064035	9.791867	-0.007609	-0.000285	0.000952									
23477	609819	-0.086475	-0.036148	9.797162	-0.001125	0.002463	-0.001606	-0.271138	0.419101	-30.804871						
23478	609844	-0.063624	-0.065714	9.790826	-0.004096	-0.002809	-0.003931									
23479	609869	-0.082516	-0.039700	9.778934	-0.007913	0.001432	-0.002150									
23480	609894	-0.062203	-0.072025	9.799932	-0.007232	-0.000235	-0.002098									
23481	609919	-0.093652	-0.038196	9.797214	-0.005160	0.003220	0.000986	-0.271315	0.419823	-30.815559						
23482	609944	-0.066554	-0.051328	9.841178	-0.007360	0.002149	-0.001252									
23483	609969	-0.061955	-0.054941	9.804237	-0.001580	-0.003548	-0.003733									
23484	609994	-0.072912	-0.054143	9.801416	-0.006287	0.001083	0.004946									
23485	610019	-0.089048	-0.054693	9.792393	-0.007290	-0.002235	-0.002430	-0.271224	0.419968	-30.835621						
23486	610044	-0.090958	-0.056276	9.802472	-0.005941	-0.002594	-0.002943									
23487	610069	-0.074848	-0.079586	9.783214	-0.010781	-0.004995	-0.002757									
23488	610094	-0.076672	-0.067111	9.810071	-0.006130	0.001593	-0.001836									
23489	610119	-0.089569	-0.053187	9.784725	-0.009270	0.005905	-0.005129	-0.272510	0.420434	-30.842556						
23490	610144	-0.072150	-0.080245	9.805255	-0.005759	-0.000279	-0.003642									
23491	610169	-0.093915	-0.051634	9.808243	-0.005764	-0.002332	-0.002940									
23492	610194	-0.080107	-0.066485	9.829264	-0.004908	0.001158	-0.001204									
23493	610219	-0.072426	-0.069144	9.824914	-0.001541	0.001477	-0.001402	-0.271771	0.420931	-30.856398						
23494	610244	-0.078560	-0.065377	9.819669	-0.005421	-0.005032	-0.002639									
23495	610269	-0.070123	-0.051955	9.814828	-0.006951	-0.002995	-0.001794									
23496	610294	-0.094614	-0.041902	9.820222	-0.008020	-0.001076	0.002249									
23497	610319	-0.062263	-0.069192	9.800892	-0.007640	-0.001210	-0.000957	-0.272465	0.419957	-30.871677						
23498	610344	-0.083780	-0.056978	9.792845	-0.006357	0.000033	-0.006509									
23499	610369	-0.082048	-0.059476	9.831184	-0.007616	-0.004032	0.000311									
23500	610394	-0.092091	-0.040539	9.797675	-0.005455	-0.003344	0.003769									
23501	610419	-0.074243	-0.059786	9.800947	-0.002044	-0.002714	0.000307	-0.272210	0.418989	-30.869938						
23502	610444	-0.074985	-0.043710	9.800946	-0.004719	0.001559	0.003405									
23503	610469	-0.084717	-0.064709	9.800045	-0.006862	0.002478	-0.002402									
23504	610494	-0.098584	-0.029977	9.812569	-0.005932	0.001597	0.001808									
23505	610519	-0.059364	-0.073822	9.800398	-0.003710	-0.000559	-0.003649	-0.271923	0.420205	-30.876335						
23506	610544	-0.048721	-0.076345	9.782611	-0.006723	0.002423	0.001176									
23507	610569	-0.084537	-0.047717	9.806750	-0.007175	0.004601	-0.000793									
23508	610594	-0.089141	-0.056769	9.805344	-0.008051	0.003743	-0.003351									
23509	610619	-0.062341	-0.060119	9.796570	-0.007822	-0.001663	-0.004283	-0.272864	0.421987	-30.879562						
23510	610644	-0.077568	-0.063222	9.803366	-0.005795	-0.001043	-0.000891									
23511	610669	-0.089838	-0.037424	9.809649	-0.009401	-0.001879	-0.000185									
23512	610694	-0.079753	-0.060859	9.835977	-0.002998	0.001323	-0.002293									
23513	610719	-0.082705	-0.087499	9.832637	-0.007716	0.000913	-0.003876	-0.273259	0.422399	-30.899912						
23514	610744	-0.090218	-0.045989	9.813488	-0.006022	-0.001685	0.000897									
23515	610769	-0.089381	-0.040258	9.812528	-0.005384	-0.000070	-0.001335									
23516	610794	-0.073715	-0.039242	9.818195	-0.007880	-0.000130	-0.008497									
23517	610819	-0.055777	-0.052424	9.800368	-0.001554	0.000197	0.001025	-0.272928	0.422654	-30.914772						
23518	610844	-0.074658	-0.075344	9.821563	-0.005226	-0.003228	-0.003400									
23519	610869	-0.053948	-0.059397	9.821944	-0.005125	0.001928	-0.002156									
23520	610894	-0.060941	-0.058225	9.806150	0.000373	-0.002606	0.000048									
23521	610919	-0.089154	-0.055437	9.813958	-0.002590	-0.001767	-0.004037	-0.271404	0.422306	-30.911812						
23522	610944	-0.081828	-0.065227	9.809132	-0.001518	-0.005220	-0.000542									
23523	610969	-0.093674	-0.029507	9.786665	-0.007884	0.002657	-0.002208									
23524	610994	-0.057097	-0.070209	9.813325	-0.004390	0.000584	-0.004022									
23525	611019	-0.079642	-0.054329	9.812469	-0.001895	-0.001295	-0.000648	-0.270334	0.422333	-30.925957						
23526	611044	-0.078146	-0.058976	9.808636	-0.001803	-0.002261	-0.001357									
23527	611069	-0.068999	-0.069509	9.818655	-0.002836	-0.002146	-0.001869									
23528	611094	-0.065865	-0.043515	9.800424	-0.001130	-0.005271	0.000420									
23529	611119	-0.079620	-0.050234	9.791862	-0.002621	0.001261	-0.004603	-0.268214	0.421607	-30.930559						
23530	611144	-0.075954	-0.075067	9.801440	-0.004920	-0.002693	-0.000197									
23531	611169	-0.074236	-0.065579	9.804307	-0.006860	-0.000040	-0.005233									
23532	611194	-0.072284	-0.042204	9.830171	-0.004055	0.000536	-0.000374									
23533	611219	-0.084354	-0.048522	9.795725	-0.006939	-0.001387	-0.002868	-0.268137	0.421520	-30.905954						
23534	611244	-0.078276	-0.057434	9.826379	-0.007251	-0.001325	0.000323									
23535	611269	-0.105490	-0.035834	9.788632	-0.007017	-0.000873	-0.003256									
23536	611294	-0.088121	-0.058640	9.805334	-0.004892	-0.001156	0.000070									
23537	611319	-0.101402	-0.049947	9.782864	-0.005759	-0.004266	-0.001483	-0.268377	0.420898	-30.903185						
23538	611344	-0.076975	-0.068907	9.798090	-0.010876	-0.001642	0.000590									
23539	611369	-0.111033	-0.051220	9.795379	-0.008567	-0.002120	-0.002104									
23540	611394	-0.087562	-0.040014	9.825943	-0.007567	0.000596	-0.001709									
23541	611419	-0.085337	-0.045672	9.795249	-0.005446	-0.004327	-0.003661	-0.269695	0.420279	-30.893438						
23542	611444	-0.093338	-0.065858	9.807281	-0.006105	0.002818	-0.001062									
23543	611469	-0.103962	-0.046967	9.801572	-0.008181	-0.002436	-0.001593									
23544	611494	-0.061251	-0.053470	9.830129	-0.005531	0.002958	-0.001127									
23545	611519	-0.087228	-0.042190	9.782789	-0.008099	0.001557	0.000092	-0.270375	0.421479	-30.907475						
23546	611544	-0.067666	-0.065819	9.819131	-0.013229	0.000113	-0.001508									
23547	611569	-0.054709	-0.066793	9.808521	-0.005339	-0.001293	-0.001155									
23548	611594	-0.099320	-0.038235	9.801061	0.003476	-0.001909	-0.003028									
23549	611619	-0.068354	-0.077429	9.811467	-0.003009	-0.002471	0.000055	-0.269648	0.421173	-30.917692						
23550	611644	-0.055310	-0.062276	9.817629	-0.009002	-0.000590	-0.003126									
23551	611669	-0.072069	-0.052788	9.808127	-0.006659	0.002228	-0.000936									
23552	611694	-0.083025	-0.050048	9.807706	-0.002801	0.000809	-0.004660									
23553	611719	-0.065123	-0.067326	9.803300	-0.005689	-0.002463	-0.002243	-0.269790	0.421648	-30.923525						
23554	611744	-0.085068	-0.034849	9.803391	-0.004256	-0.001667	-0.005436									
23555	611769	-0.077185	-0.060830	9.801929	-0.006223	0.002559	-0.001255									
23556	611794	-0.074129	-0.073697	9.810537	-0.001776	-0.000775	0.001597									
23557	611819	-0.067543	-0.068886	9.807150	-0.007062	-0.001457	-0.004092	-0.269215	0.421866	-30.890654						
23558	611844	-0.054497	-0.054186	9.819542	-0.006509	0.003648	-0.001122									
23559	611869	-0.082031	-0.042857	9.802892	-0.005874	-0.006904	-0.002585									
23560	611894	-0.090925	-0.064240	9.796247	-0.006245	0.003329	-0.001825									
23561	611919	-0.066027	-0.077568	9.817211	-0.008181	-0.002305	-0.000955	-0.269720	0.421990	-30.874405						
23562	611944	-0.115430	-0.056387	9.820334	-0.007279	-0.000495	-0.002867									
23563	611969	-0.077066	-0.064709	9.803836	-0.010061	-0.003299	0.001922									
23564	611994	-0.082469	-0.042648	9.788520	-0.004941	-0.003661	0.001909									
23565	612019	-0.096479	-0.040195	9.805375	-0.001819	0.000374	-0.002237	-0.269850	0.421478	-30.889071						
23566	612044	-0.064476	-0.054366	9.823913	-0.003153	-0.000161	-0.002429									
23567	612069	-0.055332	-0.056002	9.812831	-0.005470	-0.001167	-0.000001									
23568	612094	-0.078750	-0.038802	9.792334	-0.000437	-0.003399	-0.002384									
23569	612119	-0.094676	-0.046788	9.827415	-0.008182	0.004132	0.000104	-0.269001	0.421890	-30.902243						
23570	612144	-0.085154	-0.071540	9.812032	-0.005920	0.000626	-0.003883									
23571	612169	-0.053511	-0.082374	9.803246	-0.004889	-0.001544	-0.001794									
23572	612194	-0.061387	-0.060533	9.797054	-0.003333	-0.000226	-0.001407									
23573	612219	-0.076730	-0.054653	9.805751	-0.001702	-0.002082	-0.008644	-0.267939	0.421851	-30.879515						
23574	612244	-0.080065	-0.045985	9.791869	-0.005122	-0.002258	-0.001407									
23575	612269	-0.077567	-0.067661	9.816792	-0.001125	-0.005661	-0.000863									
23576	612294	-0.068933	-0.067997	9.810513	-0.007527	-0.005068	-0.003020									
23577	612319	-0.078015	-0.063619	9.798091	-0.004952	-0.001742	-0.004354	-0.267296	0.420199	-30.873674						
23578	612344	-0.085768	-0.056418	9.813470	-0.009044	-0.007415	-0.001812									
23579	612369	-0.078884	-0.038789	9.815353	-0.007720	-0.002296	0.002113									
23580	612394	-0.099426	-0.077136	9.826488	-0.005648	-0.003676	0.000694									
23581	612419	-0.096852	-0.052330	9.823108	-0.002514	-0.002146	-0.002244	-0.267532	0.418443	-30.869068						
23582	612444	-0.081885	-0.048757	9.781331	-0.007832	-0.005132	0.000629									
23583	612469	-0.072902	-0.049613	9.784643	-0.007236	0.002417	0.000477									
23584	612494	-0.073135	-0.089827	9.833548	-0.011514	-0.001459	0.001742									
23585	612519	-0.051170	-0.049851	9.820008	-0.004746	-0.001730	0.000955	-0.268692	0.418101	-30.881458						
23586	612544	-0.087566	-0.054978	9.784717	-0.003305	-0.001390	-0.003904									
23587	612569	-0.079867	-0.046015	9.825903	-0.002889	0.001577	-0.005296									
23588	612594	-0.088262	-0.049707	9.812516	-0.001533	-0.003166	-0.005646									
23589	612619	-0.070453	-0.056487	9.802364	-0.006291	-0.003885	-0.002439	-0.267389	0.417589	-30.887079						
23590	612644	-0.059751	-0.075559	9.789848	-0.000419	0.002339	0.000198									
23591	612669	-0.066117	-0.062430	9.790842	-0.006092	0.002563	-0.000040									
23592	612694	-0.068117	-0.065342	9.823935	-0.006720	-0.001699	0.002307									
23593	612719	-0.072102	-0.044495	9.795183	-0.004143	0.001372	-0.000310	-0.266558	0.418759	-30.907095						
23594	612744	-0.077835	-0.040001	9.809096	0.001901	-0.004247	0.001755									
23595	612769	-0.092188	-0.062485	9.775633	-0.005640	-0.004002	-0.000906									
23596	612794	-0.046010	-0.083543	9.820943	-0.006594	0.002226	0.000215									
23597	612819	-0.077371	-0.060908	9.840274	-0.002584	0.000170	-0.002493	-0.265084	0.418408	-30.913912						
23598	612844	-0.070451	-0.072428	9.822989	-0.003007	-0.000538	-0.000836									
23599	612869	-0.095269	-0.056673	9.796726	-0.001012	-0.001086	-0.000839									
23600	612894	-0.071480	-0.059911	9.807651	-0.006865	0.002541	-0.003237									
23601	612919	-0.064348	-0.058004	9.813838	-0.006418	-0.001499	0.001413	-0.264247	0.418833	-30.933750						
23602	612944	-0.085726	-0.065486	9.819221	-0.005241	-0.002778	-0.004677									
23603	612969	-0.080845	-0.061161	9.793305	-0.000994	-0.003529	0.000557									
23604	612994	-0.079075	-0.068803	9.826862	-0.003938	-0.001071	0.001021									
23605	613019	-0.075107	-0.072383	9.810535	-0.009885	-0.002921	-0.003065	-0.263793	0.417822	-30.929857						
23606	613044	-0.087881	-0.050373	9.822588	-0.007769	-0.001210	-0.003509									
23607	613069	-0.081515	-0.048889	9.792839	-0.006118	0.000747	-0.004138									
23608	613094	-0.082943	-0.060672	9.815375	-0.006108	0.001085	0.001046									
23609	613119	-0.075665	-0.069577	9.813897	-0.007807	-0.001849	0.000580	-0.264455	0.418128	-30.935415						
23610	613144	-0.069022	-0.058260	9.796124	-0.006673	-0.001450	-0.000505									
23611	613169	-0.074680	-0.067584	9.810055	-0.004289	-0.002366	0.000119									
23612	613194	-0.068654	-0.050230	9.795641	-0.006862	-0.001639	-0.001405									
23613	613219	-0.078989	-0.061159	9.790431	-0.007264	0.003445	0.001439	-0.264724	0.418333	-30.944841						
23614	613244	-0.080805	-0.063949	9.784691	-0.008009	0.000663	0.001809									
23615	613269	-0.070176	-0.047213	9.811949	-0.009753	-0.002785	0.000900									
23616	613294	-0.063969	-0.047328	9.801847	-0.002238	-0.000659	-0.001477									
23617	613319	-0.074347	-0.052641	9.797591	-0.003839	-0.000164	0.001283	-0.264813	0.418415	-30.958290						
23618	613344	-0.066342	-0.043687	9.803300	-0.007628	-0.003788	-0.003716									
23619	613369	-0.069031	-0.066144	9.814827	-0.006589	-0.000350	-0.002162									
23620	613394	-0.089229	-0.047738	9.805334	-0.005615	-0.002652	-0.001670									
23621	613419	-0.061811	-0.073643	9.813838	-0.004686	0.000726	0.004680	-0.265000	0.418027	-30.961725						
23622	613444	-0.075166	-0.062137	9.794723	-0.007258	0.000666	-0.002155									
23623	613469	-0.078323	-0.050788	9.827328	-0.005271	-0.003546	-0.001992									
23624	613494	-0.075052	-0.034241	9.801424	-0.005510	-0.001805	0.001085									
23625	613519	-0.079447	-0.054976	9.786588	-0.008442	-0.005648	0.005490	-0.265464	0.417040	-30.969769						
23626	613544	-0.066993	-0.063838	9.787964	-0.005877	-0.002784	-0.001799									
23627	613569	-0.060709	-0.055014	9.837305	-0.005531	-0.003092	0.001784									
23628	613594	-0.089862	-0.043214	9.817807	-0.007786	0.001565	-0.001319									
23629	613619	-0.061483	-0.069620	9.830610	-0.004928	-0.000195	-0.001018	-0.265593	0.416875	-30.972433						
23630	613644	-0.060738	-0.065772	9.798486	-0.004296	-0.008686	-0.004646									
23631	613669	-0.086714	-0.055710	9.801489	-0.004028	-0.002617	-0.000137									
23632	613694	-0.075079	-0.075257	9.813903	-0.006309	-0.000921	-0.000885									
23633	613719	-0.090601	-0.055358	9.806781	-0.004449	0.000586	-0.004727	-0.264987	0.415626	-30.943602						
23634	613744	-0.075295	-0.081834	9.780823	-0.006668	-0.001837	-0.003006									
23635	613769	-0.092061	-0.056546	9.817336	-0.007710	0.001049	-0.001512									
23636	613794	-0.079806	-0.042541	9.809594	-0.008756	-0.000396	-0.005807									
23637	613819	-0.094597	-0.045742	9.826464	-0.004390	-0.001279	-0.003132	-0.265599	0.415701	-30.922989						
23638	613844	-0.060472	-0.066014	9.809999	-0.009774	0.001849	-0.002404									
23639	613869	-0.100679	-0.042151	9.802037	-0.006193	-0.000930	-0.005233									
23640	613894	-0.044781	-0.101389	9.812795	-0.005366	-0.000915	-0.005506									
23641	613919	-0.068624	-0.068196	9.826809	-0.002788	-0.001174	0.002103	-0.265737	0.416007	-30.926680						
23642	613944	-0.072532	-0.054334	9.813396	-0.006485	0.000943	0.001363									
23643	613969	-0.081583	-0.050993	9.805303	-0.008056	0.001809	-0.002150									
23644	613994	-0.070062	-0.050092	9.787022	-0.007077	0.001317	0.000529									
23645	614019	-0.095383	-0.041499	9.792417	-0.009021	-0.000797	-0.010151	-0.266814	0.416971	-30.942410						
23646	614044	-0.061955	-0.074013	9.843069	-0.000316	-0.003274	-0.003475									
23647	614069	-0.085776	-0.052292	9.792857	-0.009018	0.000186	-0.000751									
23648	614094	-0.082703	-0.073224	9.800994	-0.003657	0.002022	0.000657									
23649	614119	-0.077061	-0.058086	9.779871	-0.002715	0.000429	-0.001599	-0.265726	0.417323	-30.925543						
23650	614144	-0.082681	-0.059238	9.847490	-0.005202	0.000380	-0.001398									
23651	614169	-0.094402	-0.050153	9.801047	-0.008599	-0.003149	-0.000064									
23652	614194	-0.063661	-0.061385	9.784596	-0.007966	-0.003017	-0.001219									
23653	614219	-0.088356	-0.062932	9.776568	-0.000787	-0.002050	0.000879	-0.265626	0.416672	-30.922815						
23654	614244	-0.059645	-0.064299	9.825323	-0.005694	0.001459	-0.006768									
23655	614269	-0.101424	-0.029658	9.820247	-0.007474	-0.002168	0.000197									
23656	614294	-0.080261	-0.043334	9.800981	-0.007559	0.002332	-0.003558									
23657	614319	-0.062024	-0.054678	9.811913	-0.009347	0.000243	-0.001898	-0.266629	0.417450	-30.948294						
23658	614344	-0.062457	-0.057523	9.813350	-0.006235	-0.001308	-0.000767									
23659	614369	-0.073375	-0.057403	9.799510	-0.004534	-0.000632	-0.002241									
23660	614394	-0.069725	-0.071043	9.795178	-0.001214	-0.007081	-0.001003									
23661	614419	-0.077043	-0.055242	9.779871	-0.003435	-0.000803	0.001089	-0.265495	0.416472	-30.922653						
23662	614444	-0.076390	-0.044636	9.799046	-0.004789	-0.000446	-0.001472									
23663	614469	-0.072899	-0.072770	9.842652	-0.002134	-0.001815	-0.000077									
23664	614494	-0.057804	-0.087261	9.811896	-0.000730	-0.001979	0.000623									
23665	614519	-0.067705	-0.055982	9.807146	-0.001261	-0.001217	0.000758	-0.263427	0.416124	-30.897993						
23666	614544	-0.083896	-0.054656	9.800995	-0.001852	0.001337	-0.002301									
23667	614569	-0.065530	-0.065631	9.786516	-0.001459	-0.003149	-0.000279									
23668	614594	-0.053203	-0.066164	9.797011	-0.006922	0.000483	0.001232									
23669	614619	-0.067938	-0.066308	9.792768	-0.006717	-0.002161	-0.002049	-0.262518	0.416072	-30.883175						
23670	614644	-0.099832	-0.073228	9.789573	-0.002064	0.003712	-0.005101									
23671	614669	-0.073345	-0.058337	9.799509	-0.002518	0.002494	0.000782									
23672	614694	-0.097020	-0.044023	9.833187	-0.006987	-0.003828	0.000380									
23673	614719	-0.086342	-0.063133	9.822588	-0.005355	0.003344	0.000602	-0.261633	0.417412	-30.910250						
23674	614744	-0.083511	-0.041750	9.789961	-0.005974	0.002626	-0.000933									
23675	614769	-0.092271	-0.062714	9.789533	-0.003323	-0.000614	-0.000767									
23676	614794	-0.087019	-0.068168	9.808683	-0.005499	-0.004520	-0.002128									
23677	614819	-0.076886	-0.061261	9.830216	-0.005722	0.004484	-0.006682	-0.261249	0.418151	-30.904219						
23678	614844	-0.102640	-0.038278	9.795820	-0.006022	0.000043	-0.004217									
23679	614869	-0.077737	-0.043063	9.788507	-0.004809	-0.000197	-0.002804									
23680	614894	-0.080097	-0.064518	9.825420	-0.001992	-0.000462	-0.004038									
23681	614919	-0.087793	-0.057959	9.823548	-0.004365	0.002463	0.001878	-0.260396	0.418901	-30.914188						
23682	614944	-0.091383	-0.040482	9.828347	0.000077	0.002797	-0.001013									
23683	614969	-0.086152	-0.070684	9.814440	-0.009660	0.000243	-0.002219									
23684	614994	-0.105173	-0.033255	9.809256	-0.002453	0.001970	-0.003314									
23685	615019	-0.071028	-0.060476	9.812443	-0.008041	0.003552	-0.001372	-0.259958	0.420632	-30.933346						
23686	615044	-0.100141	-0.047276	9.800118	-0.001585	-0.001228	-0.002180									
23687	615069	-0.091010	-0.051873	9.795750	-0.002156	-0.001235	-0.000073									
23688	615094	-0.072220	-0.027336	9.789425	-0.002947	-0.000347	-0.001402									
23689	615119	-0.091636	-0.043467	9.802461	-0.002322	-0.001946	0.000696	-0.257922	0.420425	-30.934153						
23690	615144	-0.045671	-0.069200	9.814713	-0.010149	-0.000611	-0.003827									
23691	615169	-0.073188	-0.043095	9.825391	-0.004126	0.000465	-0.002931									
23692	615194	-0.084061	-0.046966	9.816812	-0.009550	-0.001632	-0.005749									
23693	615219	-0.076494	-0.041641	9.812943	-0.012890	-0.000593	-0.003368	-0.259859	0.420531	-30.924051						
23694	615244	-0.063250	-0.069458	9.815751	-0.010219	-0.004463	-0.000067									
23695	615269	-0.073721	-0.071856	9.812932	-0.004195	-0.001340	-0.003013									
23696	615294	-0.072877	-0.054919	9.789435	-0.009207	0.001918	-0.003237									
23697	615319	-0.089648	-0.052076	9.810603	-0.003354	-0.003766	-0.000909	-0.260392	0.419886	-30.912970						
23698	615344	-0.113385	-0.036792	9.846199	-0.004755	-0.003657	0.000249									
23699	615369	-0.088226	-0.051590	9.811086	-0.003251	-0.002931	-0.001293									
23700	615394	-0.071473	-0.054179	9.803807	-0.007223	-0.002359	-0.002243									
23701	615419	-0.075899	-0.054350	9.814374	-0.005691	0.001861	0.001743	-0.260069	0.419367	-30.925240						
23702	615444	-0.063783	-0.069497	9.822941	-0.003807	-0.003643	-0.000525									
23703	615469	-0.075752	-0.073752	9.841233	-0.005452	-0.005803	0.000039									
23704	615494	-0.089967	-0.037631	9.826433	-0.003806	0.001197	0.005899									
23705	615519	-0.080721	-0.034197	9.795218	-0.005452	-0.003481	0.002868	-0.259372	0.418137	-30.906279						
23706	615544	-0.068144	-0.057090	9.809541	-0.006349	-0.001566	0.001666									
23707	615569	-0.083301	-0.063326	9.805303	-0.005202	-0.001548	0.000447									
23708	615594	-0.086616	-0.075473	9.821146	-0.003925	0.000213	-0.002681									
23709	615619	-0.068036	-0.062161	9.803802	-0.003342	-0.000560	-0.005241	-0.258755	0.418149	-30.926516						
23710	615644	-0.096987	-0.035514	9.807759	-0.004619	-0.002250	-0.004736									
23711	615669	-0.055543	-0.065699	9.794621	-0.007430	-0.003774	0.000632									
23712	615694	-0.073664	-0.044544	9.826350	-0.004193	-0.003199	0.000113									
23713	615719	-0.085682	-0.056490	9.792381	-0.003764	-0.000948	-0.001852	-0.258303	0.417178	-30.935204						
23714	615744	-0.052628	-0.070695	9.784536	-0.006968	-0.000358	-0.001977									
23715	615769	-0.077455	-0.063811	9.781790	-0.002387	0.000179	0.000837									
23716	615794	-0.065069	-0.054074	9.839243	-0.000234	0.000465	-0.004165									
23717	615819	-0.080920	-0.061244	9.794271	-0.004846	0.001033	-0.002611	-0.257060	0.417868	-30.953560						
23718	615844	-0.069334	-0.062269	9.777922	-0.004639	-0.001153	0.000130									
23719	615869	-0.062333	-0.060589	9.796100	-0.008312	-0.002250	-0.002877									
23720	615894	-0.075364	-0.054813	9.812939	-0.005843	-0.001690	-0.001983									
23721	615919	-0.073774	-0.066138	9.811007	-0.005363	-0.000653	-0.001463	-0.257204	0.417538	-30.965721						
23722	615944	-0.090389	-0.063331	9.801986	-0.001484	-0.004441	-0.000407									
23723	615969	-0.069126	-0.076033	9.775517	-0.008109	-0.002563	-0.000384									
23724	615994	-0.046350	-0.083175	9.802246	-0.002274	-0.001623	-0.001545									
23725	616019	-0.087809	-0.048773	9.812999	-0.004552	-0.001986	-0.000069	-0.256215	0.416457	-30.945814						
23726	616044	-0.097321	-0.050296	9.810656	-0.004473	0.001879	0.001492									
23727	616069	-0.065085	-0.066274	9.792755	-0.009237	-0.001101	-0.000438									
23728	616094	-0.077684	-0.059042	9.810072	-0.004521	-0.001149	-0.002047									
23729	616119	-0.089493	-0.037048	9.824026	0.002766	0.002520	-0.001727	-0.255118	0.417276	-30.968105						
23730	616144	-0.070374	-0.037251	9.816742	-0.004305	0.000207	-0.000249									
23731	616169	-0.064405	-0.056051	9.812880	-0.003803	0.000338	-0.002812									
23732	616194	-0.102964	-0.045151	9.782868	-0.000264	0.001568	-0.000946									
23733	616219	-0.067640	-0.067094	9.815781	-0.006667	0.000294	-0.002168	-0.253934	0.418056	-30.947731						
23734	616244	-0.101651	-0.051002	9.820251	-0.006007	-0.002390	0.000383									
23735	616269	-0.076358	-0.054953	9.822046	-0.004506	-0.001281	0.000191									
23736	616294	-0.088720	-0.045666	9.796232	-0.001343	0.001417	-0.000380									
23737	616319	-0.051758	-0.078296	9.815698	-0.007027	-0.000355	-0.001080	-0.253302	0.418141	-30.937908						
23738	616344	-0.052363	-0.058679	9.806103	-0.005043	-0.004831	-0.001428									
23739	616369	-0.086911	-0.058502	9.833134	-0.003159	0.000554	0.001159									
23740	616394	-0.077547	-0.055741	9.779871	-0.003386	-0.000219	0.004157									
23741	616419	-0.069096	-0.053668	9.803795	-0.007994	-0.002313	-0.003901	-0.252787	0.417675	-30.956717						
23742	616444	-0.079185	-0.059235	9.821594	-0.004129	-0.001201	0.001594									
23743	616469	-0.054765	-0.065923	9.808521	-0.008732	0.002953	-0.004572									
23744	616494	-0.100092	-0.045304	9.790051	-0.008424	-0.002766	-0.003003									
23745	616519	-0.081845	-0.068160	9.811525	-0.005196	-0.001872	-0.001152	-0.253259	0.417735	-30.958977						
23746	616544	-0.088658	-0.053340	9.800541	-0.002135	-0.002076	-0.005323									
23747	616569	-0.079410	-0.032109	9.813435	-0.007044	-0.004157	-0.002055									
23748	616594	-0.075908	-0.045750	9.804301	-0.008647	-0.001413	0.000583									
23749	616619	-0.051030	-0.061793	9.822403	-0.007069	-0.001127	-0.000569	-0.253500	0.416942	-30.955481						
23750	616644	-0.071759	-0.067727	9.792791	-0.004502	0.000066	-0.004408									
23751	616669	-0.083544	-0.044842	9.805779	-0.007802	-0.000380	-0.004146									
23752	616694	-0.070988	-0.054986	9.796135	-0.006139	-0.000076	0.002629									
23753	616719	-0.084740	-0.057096	9.798120	-0.006376	-0.002663	0.000893	-0.253720	0.416955	-30.942062						
23754	616744	-0.081075	-0.044090	9.790426	-0.004131	-0.001404	-0.003456									
23755	616769	-0.070671	-0.047533	9.809547	-0.003318	-0.000811	-0.002623									
23756	616794	-0.077315	-0.057839	9.823501	-0.005744	-0.000654	-0.001338									
23757	616819	-0.086457	-0.069785	9.790938	-0.004610	-0.002377	-0.002821	-0.252939	0.416636	-30.922251						
23758	616844	-0.088315	-0.044489	9.807245	-0.010210	-0.000542	-0.001320									
23759	616869	-0.116118	-0.023310	9.799237	-0.004718	-0.003287	-0.006336									
23760	616894	-0.071168	-0.054657	9.837360	-0.004539	-0.004825	-0.004946									
23761	616919	-0.088607	-0.059283	9.811085	-0.009044	-0.002764	0.003715	-0.253704	0.415476	-30.926661						
23762	616944	-0.062176	-0.071954	9.799457	-0.001675	-0.002320	0.000370									
23763	616969	-0.074888	-0.048391	9.799987	-0.001340	-0.000910	-0.002761									
23764	616994	-0.068355	-0.085158	9.818177	-0.004376	-0.001664	-0.002436									
23765	617019	-0.068170	-0.056507	9.807152	-0.004423	-0.000447	-0.003642	-0.252064	0.415146	-30.907194						
23766	617044	-0.082335	-0.065297	9.805779	-0.011139	-0.001788	-0.005358									
23767	617069	-0.086250	-0.054118	9.791421	-0.005014	0.002775	0.001557									
23768	617094	-0.074289	-0.059286	9.795206	-0.004254	0.002591	-0.003240									
23769	617119	-0.097857	-0.077766	9.802506	-0.010899	-0.001262	-0.002474	-0.253227	0.415943	-30.905882						
23770	617144	-0.106186	-0.028670	9.815007	-0.007841	-0.000487	0.004297									
23771	617169	-0.052809	-0.054659	9.787891	-0.010061	-0.000788	0.003473									
23772	617194	-0.066732	-0.052780	9.808577	-0.008520	-0.005397	0.002290									
23773	617219	-0.069626	-0.067956	9.835439	-0.007518	-0.003065	-0.001095	-0.254735	0.414989	-30.881235						
23774	617244	-0.081037	-0.054897	9.814883	-0.003693	-0.004928	0.001261									
23775	617269	-0.070392	-0.064418	9.796614	-0.002056	-0.002460	-0.002639									
23776	617294	-0.067366	-0.049370	9.805225	-0.005311	0.003920	-0.001763									
23777	617319	-0.077269	-0.080143	9.795695	-0.001165	-0.001851	0.003250	-0.253168	0.414736	-30.899946						
23778	617344	-0.089938	-0.045300	9.831231	-0.004841	0.001030	-0.004594									
23779	617369	-0.077292	-0.057128	9.811030	-0.002266	0.004491	-0.002789									
23780	617394	-0.086413	-0.045878	9.812510	-0.002140	-0.002216	-0.006853									
23781	617419	-0.075267	-0.051128	9.788489	-0.005537	-0.001040	-0.001344	-0.251983	0.415555	-30.919365						
23782	617444	-0.070298	-0.074588	9.805248	-0.008225	-0.000955	-0.001012									
23783	617469	-0.078257	-0.041654	9.790909	-0.003238	0.000802	-0.000119									
23784	617494	-0.068062	-0.061098	9.800900	0.000843	-0.001444	-0.003022									
23785	617519	-0.065830	-0.088140	9.800911	-0.001340	-0.000633	0.001532	-0.250361	0.415687	-30.906275						
23786	617544	-0.073468	-0.053865	9.813415	-0.007263	0.000727	-0.002988									
23787	617569	-0.071832	-0.059603	9.788476	-0.005069	0.000587	0.002442									
23788	617594	-0.073729	-0.069396	9.805266	-0.007939	0.000407	0.000079									
23789	617619	-0.080051	-0.051213	9.790431	-0.005889	0.000319	0.003783	-0.250782	0.416470	-30.913010						
23790	617644	-0.073156	-0.036137	9.799502	-0.009431	0.001346	0.001563									
23791	617669	-0.061237	-0.083285	9.823899	-0.010131	-0.001445	-0.004016									
23792	617694	-0.087389	-0.038826	9.811075	-0.005625	-0.005987	0.004393									
23793	617719	-0.094407	-0.051755	9.813988	-0.009698	-0.005111	-0.005248	-0.252463	0.415367	-30.929638						
23794	617744	-0.087045	-0.061371	9.793345	-0.010015	-0.002986	-0.003386									
23795	617769	-0.059477	-0.071806	9.821492	-0.003156	0.000165	-0.001210									
23796	617794	-0.061310	-0.077094	9.828197	-0.000529	-0.004566	-0.003287									
23797	617819	-0.063682	-0.075168	9.820079	-0.004379	-0.001664	-0.000705	-0.251731	0.414534	-30.926977						
23798	617844	-0.080858	-0.068557	9.806251	-0.006042	-0.001499	-0.002876									
23799	617869	-0.068633	-0.064588	9.807156	-0.006302	0.004800	-0.003487									
23800	617894	-0.079183	-0.050962	9.805767	-0.006765	0.001186	-0.004585									
23801	617919	-0.066986	-0.042557	9.823913	-0.006779	-0.004274	0.000563	-0.252121	0.415034	-30.928446						
23802	617944	-0.073711	-0.067968	9.803341	-0.007068	-0.001067	-0.001019									
23803	617969	-0.077872	-0.040979	9.803836	-0.009763	-0.000536	-0.000882									
23804	617994	-0.052496	-0.083252	9.798449	-0.004497	-0.003588	0.002544									
23805	618019	-0.069197	-0.050902	9.809071	-0.005822	-0.001879	0.002173	-0.252681	0.414512	-30.935186						
23806	618044	-0.051446	-0.085764	9.778796	-0.005084	0.000773	0.000906									
23807	618069	-0.101727	-0.011293	9.825998	-0.011338	-0.000747	0.002581									
23808	618094	-0.080305	-0.031697	9.788989	-0.005361	0.001937	0.003856									
23809	618119	-0.071396	-0.061310	9.805249	-0.006841	-0.001892	0.003137	-0.253456	0.415047	-30.958591						
23810	618144	-0.077414	-0.054149	9.827815	-0.009640	0.003850	-0.000919									
23811	618169	-0.086394	-0.042329	9.792857	-0.006932	0.000608	-0.002992									
23812	618194	-0.088297	-0.034578	9.782326	-0.009058	-0.000784	-0.002801									
23813	618219	-0.094039	-0.040794	9.809202	-0.007533	-0.004812	-0.003399	-0.254885	0.415342	-30.953987						
23814	618244	-0.057674	-0.055457	9.807097	-0.007828	-0.003390	0.000124									
23815	618269	-0.107852	-0.043088	9.799677	-0.002174	0.001597	-0.000820									
23816	618294	-0.054111	-0.071864	9.800368	-0.003338	-0.002554	-0.004999									
23817	618319	-0.067945	-0.065236	9.789890	-0.001386	-0.001609	-0.002573	-0.253671	0.414951	-30.949810						
23818	618344	-0.069006	-0.055783	9.788454	-0.004107	-0.002103	-0.000073									
23819	618369	-0.076745	-0.055735	9.811502	-0.003818	-0.001530	-0.004670									
23820	618394	-0.075732	-0.057971	9.802871	-0.005300	-0.000784	-0.002745									
23821	618419	-0.091097	-0.046892	9.810140	-0.004373	-0.005913	-0.003156	-0.252873	0.413940	-30.951460						
23822	618444	-0.111204	-0.045753	9.811682	-0.004371	-0.001727	-0.000899									
23823	618469	-0.081666	-0.044817	9.806740	-0.005619	0.001532	-0.000302									
23824	618494	-0.092316	-0.074119	9.818308	-0.007086	-0.000224	0.001803									
23825	618519	-0.099786	-0.075754	9.796767	-0.004981	0.001550	-0.000556	-0.252709	0.414594	-30.960695						
23826	618544	-0.078067	-0.041400	9.835482	-0.002341	0.000624	-0.001785									
23827	618569	-0.095321	-0.056361	9.805852	-0.003582	-0.000423	-0.001346									
23828	618594	-0.091975	-0.061215	9.811584	-0.007552	0.000212	-0.000562									
23829	618619	-0.063730	-0.070925	9.817193	-0.009739	-0.001633	-0.003442	-0.252713	0.414890	-30.961432						
23830	618644	-0.061132	-0.050374	9.812378	-0.006649	-0.002348	-0.002369									
23831	618669	-0.062746	-0.068658	9.798980	-0.003114	0.000747	-0.001335									
23832	618694	-0.062260	-0.034098	9.807110	-0.001651	0.001551	0.002758									
23833	618719	-0.070388	-0.035839	9.817707	-0.005764	-0.000209	-0.001717	-0.251841	0.415308	-30.951160						
23834	618744	-0.078334	-0.047402	9.817259	-0.010613	-0.002095	-0.001846									
23835	618769	-0.062157	-0.080122	9.800891	-0.010009	0.002997	-0.004570									
23836	618794	-0.079467	-0.065696	9.803854	-0.009462	-0.000142	-0.001639									
23837	618819	-0.076989	-0.059110	9.781306	-0.005367	-0.002778	-0.002116	-0.253593	0.415465	-30.938480						
23838	618844	-0.065399	-0.050331	9.807609	-0.007772	-0.001147	-0.003065									
23839	618869	-0.077132	-0.062269	9.801446	-0.006069	-0.000337	-0.001211									
23840	618894	-0.081522	-0.052537	9.816315	-0.000818	-0.005075	0.001374									
23841	618919	-0.047007	-0.078377	9.824305	-0.006641	-0.002795	-0.002371	-0.253332	0.414637	-30.961937						
23842	618944	-0.085943	-0.042044	9.810586	-0.002581	-0.004147	-0.003730									
23843	618969	-0.080820	-0.060085	9.780841	-0.005266	-0.001614	-0.000195									
23844	618994	-0.079761	-0.044811	9.811031	-0.003147	-0.002028	-0.000516									
23845	619019	-0.066543	-0.075588	9.813851	-0.003751	-0.001204	-0.001605	-0.252101	0.413762	-30.928532						
23846	619044	-0.071507	-0.040459	9.777445	-0.004551	-0.000712	-0.006710									
23847	619069	-0.076710	-0.063444	9.819662	-0.004405	-0.000304	0.002374									
23848	619094	-0.100642	-0.047237	9.797245	-0.002700	-0.000016	-0.000317									
23849	619119	-0.069210	-0.048423	9.807634	-0.000021	0.000355	0.003190	-0.250439	0.414123	-30.919014						
23850	619144	-0.071836	-0.054261	9.780793	-0.005962	0.000043	-0.002293									
23851	619169	-0.071347	-0.064052	9.799492	-0.004193	-0.001211	0.000317									
23852	619194	-0.096268	-0.049162	9.799129	-0.003378	-0.003120	-0.001609									
23853	619219	-0.074101	-0.050104	9.820132	-0.004563	0.002250	-0.006065	-0.249719	0.414326	-30.934910						
23854	619244	-0.073676	-0.034404	9.812922	-0.005880	-0.002004	0.002947									
23855	619269	-0.074630	-0.073530	9.800952	-0.001754	0.002377	-0.000185									
23856	619294	-0.092874	-0.057637	9.799129	-0.004603	-0.000311	-0.000951									
23857	619319	-0.082684	-0.075720	9.806268	-0.007458	0.001250	0.000155	-0.249193	0.414948	-30.909679						
23858	619344	-0.062042	-0.058510	9.818147	-0.006153	0.000237	-0.001527									
23859	619369	-0.077522	-0.034430	9.810065	-0.008118	0.001943	-0.001122									
23860	619394	-0.111971	-0.044326	9.775732	-0.009914	0.000176	-0.001512									
23861	619419	-0.085145	-0.068645	9.807723	-0.007471	-0.002681	-0.001919	-0.250402	0.415362	-30.903980						
23862	619444	-0.058483	-0.067789	9.806143	-0.007533	-0.000755	-0.001845									
23863	619469	-0.060969	-0.059724	9.803753	-0.006063	0.001201	-0.003374									
23864	619494	-0.101642	-0.077064	9.790068	-0.004172	0.000152	0.000519									
23865	619519	-0.065108	-0.036595	9.810007	-0.005277	0.001034	0.001170	-0.250357	0.416011	-30.870621						
23866	619544	-0.086052	-0.069944	9.799091	-0.007968	-0.002879	0.000319									
23867	619569	-0.092042	-0.052697	9.819251	-0.001217	-0.002638	-0.001231									
23868	619594	-0.057460	-0.068495	9.790323	-0.007167	-0.000167	-0.003381									
23869	619619	-0.083817	-0.055559	9.797162	-0.001787	-0.002648	0.000307	-0.249640	0.415314	-30.885019						
23870	619644	-0.083852	-0.062010	9.810112	-0.007433	0.000477	0.000145									
23871	619669	-0.096683	-0.024722	9.812557	-0.006258	-0.002275	0.000384									
23872	619694	-0.073016	-0.047077	9.806686	-0.004862	-0.000912	-0.007159									
23873	619719	-0.085136	-0.025678	9.789973	-0.008531	0.000837	-0.002539	-0.250215	0.415567	-30.915222						
23874	619744	-0.084311	-0.049601	9.775119	-0.005499	0.003460	-0.005727									
23875	619769	-0.081338	-0.040418	9.831185	-0.002427	-0.004779	-0.001113									
23876	619794	-0.076263	-0.067830	9.825895	-0.005093	0.001167	-0.000051									
23877	619819	-0.089171	-0.048558	9.799093	-0.000390	-0.000367	-0.001290	-0.248794	0.415904	-30.881294						
23878	619844	-0.055537	-0.069029	9.796540	-0.006606	-0.001569	0.000706									
23879	619869	-0.084083	-0.044102	9.796286	-0.006801	-0.003670	-0.004269									
23880	619894	-0.101330	-0.054796	9.827529	-0.008292	-0.000405	-0.000927									
23881	619919	-0.063607	-0.056400	9.812485	-0.006397	0.002068	-0.002196	-0.249506	0.415892	-30.898762						
23882	619944	-0.064826	-0.075996	9.816329	-0.007743	0.001979	-0.004947									
23883	619969	-0.094439	-0.056476	9.791546	-0.005393	0.000808	-0.000158									
23884	619994	-0.044322	-0.077115	9.815745	-0.005770	0.002666	0.001706									
23885	620019	-0.064809	-0.073675	9.823030	-0.006725	-0.003599	0.001034	-0.249844	0.416610	-30.886379						
23886	620044	-0.066280	-0.064854	9.800993	-0.008678	-0.000285	0.001118									
23887	620069	-0.088949	-0.036132	9.796304	-0.008221	-0.003116	-0.004201									
23888	620094	-0.069635	-0.053462	9.802927	-0.003721	-0.008313	-0.002640									
23889	620119	-0.075312	-0.060904	9.791924	0.003660	-0.001416	-0.000384	-0.248957	0.415212	-30.894239						
23890	620144	-0.065949	-0.054477	9.807217	-0.004569	-0.001369	0.000145									
23891	620169	-0.057405	-0.042290	9.795666	-0.002931	-0.002436	0.001353									
23892	620194	-0.089805	-0.048500	9.800631	-0.005360	-0.002277	0.003663									
23893	620219	-0.082988	-0.057804	9.797234	-0.002466	-0.000484	0.006033	-0.247803	0.414725	-30.876469						
23894	620244	-0.080261	-0.044592	9.802020	-0.004944	-0.005691	-0.001152									
23895	620269	-0.072542	-0.055862	9.798627	-0.009297	-0.000413	0.006434									
23896	620294	-0.087768	-0.046585	9.772819	-0.002879	0.001945	0.001439									
23897	620319	-0.088580	-0.042536	9.813559	-0.007598	-0.000399	-0.003359	-0.248022	0.414573	-30.890272						
23898	620344	-0.094560	-0.051039	9.808327	-0.005026	-0.003253	-0.004338									
23899	620369	-0.073533	-0.051496	9.793358	-0.005722	0.000927	-0.000729									
23900	620394	-0.078740	-0.053999	9.795773	-0.005710	-0.001849	-0.004329									
23901	620419	-0.098610	-0.045460	9.842855	-0.005996	-0.004810	-0.002807	-0.247917	0.413739	-30.882708						
23902	620444	-0.077368	-0.052664	9.805358	-0.005238	-0.004545	-0.001726									
23903	620469	-0.050502	-0.079647	9.822493	-0.004978	0.001650	-0.001244									
23904	620494	-0.082461	-0.053346	9.784299	-0.001977	-0.002289	0.002179									
23905	620519	-0.084474	-0.066796	9.820257	-0.008391	0.000823	0.001447	-0.247535	0.413585	-30.880089						
23906	620544	-0.073667	-0.044611	9.809172	-0.003491	-0.003548	-0.003769									
23907	620569	-0.080263	-0.061085	9.825514	-0.006394	-0.000250	-0.002588									
23908	620594	-0.078070	-0.064842	9.794342	-0.004758	-0.003633	-0.003061									
23909	620619	-0.096011	-0.055067	9.821278	-0.006965	-0.004378	-0.002162	-0.247329	0.412398	-30.903297						
23910	620644	-0.068141	-0.066302	9.801476	-0.006503	-0.000437	0.001055									
23911	620669	-0.059256	-0.062638	9.820133	-0.004369	-0.001360	0.002702									
23912	620694	-0.062616	-0.051931	9.800500	-0.002795	0.001042	-0.000294									
23913	620719	-0.067277	-0.060602	9.805315	-0.004955	-0.001182	0.000274	-0.246656	0.412575	-30.888878						
23914	620744	-0.095584	-0.048276	9.818389	0.000662	-0.005725	-0.001934									
23915	620769	-0.064954	-0.072038	9.843178	-0.002898	-0.005721	0.000437									
23916	620794	-0.069692	-0.062665	9.809158	-0.008135	0.000829	0.001961									
23917	620819	-0.058077	-0.067465	9.796154	-0.005056	-0.002019	0.001679	-0.245545	0.411266	-30.903212						
23918	620844	-0.064960	-0.054891	9.804333	-0.004429	-0.001359	0.003536									
23919	620869	-0.066926	-0.045236	9.791409	-0.006661	0.000328	0.000288									
23920	620894	-0.069626	-0.060556	9.802926	-0.003074	-0.004309	-0.000642									
23921	620919	-0.082073	-0.064164	9.808270	-0.004812	0.002359	-0.002648	-0.244925	0.411290	-30.889011						
23922	620944	-0.082228	-0.048132	9.812582	-0.005133	-0.001574	0.000024									
23923	620969	-0.082548	-0.055892	9.791009	-0.009078	0.002483	0.003184									
23924	620994	-0.080824	-0.059169	9.822642	-0.004339	0.003654	-0.000530									
23925	621019	-0.099128	-0.058895	9.790127	-0.006075	-0.000241	-0.001308	-0.245132	0.412405	-30.900944						
23926	621044	-0.069427	-0.054838	9.829765	-0.003707	-0.000261	-0.001515									
23927	621069	-0.100359	-0.046934	9.810267	-0.009762	-0.000370	-0.000405									
23928	621094	-0.074774	-0.038464	9.808701	-0.005147	0.002930	-0.000082									
23929	621119	-0.092631	-0.047012	9.793924	-0.007355	-0.002196	-0.003047	-0.245529	0.412891	-30.900856						
23930	621144	-0.060079	-0.061371	9.795682	-0.008613	-0.000341	0.002013									
23931	621169	-0.105512	-0.046851	9.802622	-0.006619	-0.003146	-0.000876									
23932	621194	-0.095555	-0.049853	9.819346	-0.009947	-0.004749	0.000146									
23933	621219	-0.079976	-0.075038	9.807776	-0.005130	-0.001967	-0.003633	-0.246527	0.411856	-30.873325						
23934	621244	-0.077797	-0.060154	9.799128	-0.006089	0.002262	-0.004503									
23935	621269	-0.082690	-0.052824	9.808743	-0.005446	0.002217	-0.002006									
23936	621294	-0.048299	-0.070317	9.833501	-0.007074	0.001287	-0.000729									
23937	621319	-0.073730	-0.048169	9.824514	-0.005139	0.000219	-0.005086	-0.246610	0.413173	-30.869396						
23938	621344	-0.074739	-0.087221	9.831243	-0.006370	-0.002879	-0.000177									
23939	621369	-0.068724	-0.057648	9.795730	-0.006995	-0.001222	-0.001642									
23940	621394	-0.078524	-0.071417	9.788113	-0.006036	0.000788	-0.000992									
23941	621419	-0.046770	-0.064165	9.806161	-0.006093	-0.000057	-0.005278	-0.246963	0.413205	-30.897470						
23942	621444	-0.069885	-0.057180	9.828329	-0.003424	0.000703	-0.003238									
23943	621469	-0.061128	-0.067393	9.819661	-0.004782	0.001593	0.000486									
23944	621494	-0.066044	-0.057495	9.823036	-0.002205	0.002530	-0.001185									
23945	621519	-0.079260	-0.053228	9.808230	-0.001766	-0.002995	0.000766	-0.245366	0.413894	-30.869772						
23946	621544	-0.093998	-0.031525	9.836121	-0.007007	-0.005022	-0.001845									
23947	621569	-0.087862	-0.054850	9.814042	-0.004214	-0.002262	0.001360									
23948	621594	-0.078711	-0.047108	9.781874	-0.005700	-0.004031	-0.000951									
23949	621619	-0.061811	-0.075632	9.799533	-0.005068	-0.001900	-0.002612	-0.245197	0.412481	-30.875429						
23950	621644	-0.076474	-0.056661	9.818781	-0.003663	-0.001875	-0.003444									
23951	621669	-0.064003	-0.050089	9.801930	-0.004509	-0.003633	-0.003128									
23952	621694	-0.020372	-0.089142	9.812276	-0.007433	0.004566	-0.000012									
23953	621719	-0.055989	-0.063600	9.822522	-0.008079	0.004740	-0.004290	-0.245265	0.413471	-30.863611						
23954	621744	-0.076288	-0.054774	9.786658	-0.005950	-0.002173	-0.002475									
23955	621769	-0.079210	-0.057434	9.802496	-0.007960	-0.003107	-0.000942									
23956	621794	-0.071270	-0.055457	9.835535	-0.007527	-0.004581	-0.000884									
23957	621819	-0.070862	-0.079080	9.799581	-0.005922	-0.001016	-0.003882	-0.245865	0.412380	-30.863024						
23958	621844	-0.079745	-0.040603	9.784274	-0.010714	-0.003161	-0.004128									
23959	621869	-0.067882	-0.055086	9.815377	-0.004135	-0.002775	0.002311									
23960	621894	-0.082353	-0.074199	9.809709	-0.008175	-0.004004	0.002956									
23961	621919	-0.064351	-0.068563	9.800034	-0.006054	0.003037	-0.005135	-0.246701	0.411848	-30.854548						
23962	621944	-0.087465	-0.038653	9.783834	-0.002912	0.000785	-0.000039									
23963	621969	-0.070106	-0.062507	9.800534	-0.006768	-0.000514	-0.002852									
23964	621994	-0.084279	-0.040564	9.814501	-0.004247	0.000888	0.000930									
23965	622019	-0.067979	-0.052825	9.820657	-0.006449	0.001946	0.001448	-0.246305	0.412800	-30.874453						
23966	622044	-0.061231	-0.076836	9.788502	-0.002176	-0.002487	-0.000180									
23967	622069	-0.096627	-0.067516	9.798266	-0.002483	-0.007196	-0.003089									
23968	622094	-0.089414	-0.039566	9.807815	-0.003868	-0.005546	-0.002496									
23969	622119	-0.102424	-0.028792	9.808355	-0.000621	-0.002712	0.002944	-0.244303	0.410733	-30.892843						
23970	622144	-0.077345	-0.048692	9.793371	-0.004205	-0.002588	0.001992									
23971	622169	-0.059926	-0.074701	9.801435	-0.002831	-0.002183	-0.004409									
23972	622194	-0.090842	-0.055178	9.832279	-0.009483	-0.001727	-0.006300									
23973	622219	-0.074328	-0.073227	9.819728	-0.002542	-0.003134	0.000004	-0.243695	0.409771	-30.862955						
23974	622244	-0.087765	-0.069747	9.821717	-0.012006	-0.000089	-0.001809									
23975	622269	-0.104522	-0.056233	9.800701	-0.002944	0.001679	-0.003423									
23976	622294	-0.106095	-0.045623	9.817487	-0.004406	-0.002724	-0.002286									
23977	622319	-0.075970	-0.061005	9.824049	-0.003856	-0.001547	0.000656	-0.243690	0.409833	-30.848721						
23978	622344	-0.070982	-0.059458	9.790469	-0.002527	-0.005394	-0.000072									
23979	622369	-0.079123	-0.065529	9.805381	-0.006084	-0.003514	0.004102									
23980	622394	-0.066766	-0.072216	9.820645	-0.004308	-0.001560	-0.001645									
23981	622419	-0.072788	-0.054447	9.828828	-0.006966	-0.000054	0.000863	-0.243204	0.408790	-30.840685						
23982	622444	-0.066333	-0.045140	9.847974	-0.006114	0.001176	-0.002006									
23983	622469	-0.103451	-0.030851	9.816515	-0.004333	0.001270	-0.001816									
23984	622494	-0.086835	-0.060359	9.804445	-0.001559	0.000358	-0.002153									
23985	622519	-0.090196	-0.065302	9.815024	-0.003846	0.002052	-0.001690	-0.242146	0.409928	-30.825361						
23986	622544	-0.063674	-0.050767	9.812967	-0.009306	0.001378	-0.001295									
23987	622569	-0.093169	-0.039293	9.785299	-0.007138	0.001745	0.002480									
23988	622594	-0.067116	-0.042264	9.815377	-0.005786	-0.000937	0.001940									
23989	622619	-0.060202	-0.080580	9.779398	-0.007826	-0.001174	-0.000678	-0.243136	0.410588	-30.848167						
23990	622644	-0.064749	-0.076353	9.810577	-0.005321	0.000030	-0.002335									
23991	622669	-0.091143	-0.059155	9.813582	-0.006710	-0.002122	-0.000617									
23992	622694	-0.067770	-0.061095	9.804361	-0.004633	0.002682	-0.001942									
23993	622719	-0.062684	-0.044441	9.801934	-0.009225	-0.001523	-0.002718	-0.243529	0.410933	-30.854431						
23994	622744	-0.079678	-0.065742	9.819751	-0.005737	-0.002944	-0.002418									
23995	622769	-0.086607	-0.050823	9.830331	-0.007425	-0.001876	-0.003557									
23996	622794	-0.065892	-0.074703	9.826873	-0.006776	0.003862	-0.003342									
23997	622819	-0.077877	-0.052775	9.809679	-0.005399	-0.001062	0.001751	-0.243842	0.411118	-30.857275						
23998	622844	-0.072145	-0.059428	9.814924	-0.004911	-0.000738	-0.003757									
23999	622869	-0.085603	-0.022832	9.828876	-0.008826	0.002152	-0.004622									
24000	622894	-0.076356	-0.062654	9.811104	0.000109	-0.000133	-0.001782									
24001	622919	-0.082475	-0.055117	9.776144	-0.001925	0.003433	-0.005716	-0.242758	0.412250	-30.854977						
24002	622944	-0.082902	-0.070766	9.803467	-0.005703	0.000153	-0.001316									
24003	622969	-0.081794	-0.087953	9.810184	-0.007787	0.001867	0.001641									
24004	622994	-0.084242	-0.042421	9.811145	-0.005098	-0.000611	-0.000106									
24005	623019	-0.068014	-0.069958	9.793334	-0.006524	-0.002447	-0.005357	-0.243038	0.412584	-30.862419						
24006	623044	-0.050950	-0.064614	9.798513	-0.008622	-0.004601	-0.002806									
24007	623069	-0.061546	-0.057513	9.792338	-0.006120	-0.000554	0.000086									
24008	623094	-0.086882	-0.059931	9.807814	-0.002864	0.001301	0.000922									
24009	623119	-0.074498	-0.052741	9.807263	-0.011036	-0.002514	-0.000480	-0.243801	0.412105	-30.838694						
24010	623144	-0.082250	-0.040749	9.798670	-0.003496	-0.001362	-0.004846									
24011	623169	-0.067719	-0.054140	9.785652	-0.004177	-0.001621	-0.000882									
24012	623194	-0.069370	-0.055182	9.820180	-0.005583	0.000344	-0.002974									
24013	623219	-0.099705	-0.040279	9.844769	-0.003780	-0.000075	-0.001568	-0.242924	0.412179	-30.836468						
24014	623244	-0.081338	-0.054900	9.824084	-0.005211	0.000802	-0.004001									
24015	623269	-0.088691	-0.062180	9.800625	-0.001454	-0.001003	-0.002228									
24016	623294	-0.093861	-0.055304	9.777153	-0.004758	-0.001378	-0.000302									
24017	623319	-0.049481	-0.077093	9.809540	-0.006565	-0.000829	-0.001383	-0.242171	0.412275	-30.819534						
24018	623344	-0.084385	-0.066095	9.806835	-0.007020	-0.002570	-0.001647									
24019	623369	-0.080657	-0.059306	9.804898	-0.002407	0.000986	0.000152									
24020	623394	-0.064325	-0.062909	9.800982	-0.005451	-0.003444	0.002316									
24021	623419	-0.073422	-0.081573	9.834115	-0.009362	-0.001140	-0.004065	-0.242323	0.411869	-30.822998						
24022	623444	-0.075611	-0.070626	9.797687	-0.009003	-0.004736	-0.002159									
24023	623469	-0.078362	-0.052088	9.799129	-0.002672	0.001436	0.001116									
24024	623494	-0.092645	-0.052841	9.802561	-0.006123	0.001302	-0.002837									
24025	623519	-0.099869	-0.055603	9.822254	-0.007147	0.001541	-0.003217	-0.242580	0.412280	-30.827681						
24026	623544	-0.075645	-0.053400	9.826445	-0.003397	0.002195	0.001185									
24027	623569	-0.092606	-0.051509	9.805912	-0.007032	-0.003727	0.003085									
24028	623594	-0.087412	-0.038740	9.783357	-0.007935	-0.001626	0.000924									
24029	623619	-0.060783	-0.067310	9.839795	-0.008631	0.001900	-0.003406	-0.243124	0.412585	-30.833435						
24030	623644	-0.080771	-0.048003	9.808243	-0.004509	-0.003113	-0.000757									
24031	623669	-0.081661	-0.066350	9.826474	-0.005972	-0.001331	-0.000879									
24032	623694	-0.084993	-0.053838	9.812105	-0.005209	-0.003514	-0.003318									
24033	623719	-0.066674	-0.062734	9.788537	-0.003906	-0.000009	0.000986	-0.242613	0.411927	-30.840309						
24034	623744	-0.068983	-0.068372	9.787583	-0.003628	-0.003032	-0.002229									
24035	623769	-0.070906	-0.064202	9.788549	-0.004472	-0.004591	-0.000767									
24036	623794	-0.080857	-0.082636	9.801546	-0.008774	0.002809	0.001907									
24037	623819	-0.072286	-0.072747	9.788082	-0.005083	0.000411	-0.004384	-0.242440	0.411774	-30.844595						
24038	623844	-0.049147	-0.057787	9.793216	-0.001490	-0.001830	-0.000121									
24039	623869	-0.071312	-0.076520	9.785204	-0.006291	0.002517	-0.004627									
24040	623894	-0.085893	-0.054076	9.792463	-0.010090	-0.000112	-0.000536									
24041	623919	-0.094093	-0.047651	9.802561	-0.006412	-0.001669	-0.001764	-0.242593	0.412068	-30.833763						
24042	623944	-0.080648	-0.060008	9.813052	-0.007431	-0.003740	-0.001903									
24043	623969	-0.087617	-0.035762	9.811158	-0.000931	-0.003700	-0.003198									
24044	623994	-0.041258	-0.088917	9.814291	-0.006032	-0.001460	0.000402									
24045	624019	-0.077111	-0.065304	9.790979	-0.010994	-0.001681	-0.000092	-0.242906	0.411016	-30.830145						
24046	624044	-0.075090	-0.077517	9.785228	-0.005178	0.001706	-0.000286									
24047	624069	-0.088710	-0.035236	9.829376	-0.011809	-0.000213	0.000177									
24048	624094	-0.051623	-0.068213	9.822010	-0.002237	0.003627	0.000033									
24049	624119	-0.059244	-0.041636	9.776984	-0.008382	0.000365	-0.000341	-0.243535	0.412273	-30.827833						
24050	624144	-0.071236	-0.052818	9.814917	-0.009559	-0.002816	-0.001258									
24051	624169	-0.077503	-0.042079	9.790984	-0.010854	0.003856	-0.001536									
24052	624194	-0.071141	-0.063806	9.820191	-0.010143	-0.002763	-0.003685									
24053	624219	-0.070382	-0.080178	9.811085	-0.003769	-0.002845	-0.003639	-0.245139	0.412092	-30.832525						
24054	624244	-0.061065	-0.056114	9.792326	-0.008376	-0.001955	-0.000359									
24055	624269	-0.082443	-0.066920	9.802514	-0.002767	0.000404	0.001176									
24056	624294	-0.071085	-0.072230	9.817796	-0.002217	0.003177	-0.000799									
24057	624319	-0.063560	-0.061231	9.817277	-0.005297	0.001381	-0.002263	-0.244490	0.412998	-30.834087						
24058	624344	-0.082574	-0.047904	9.791951	-0.013168	-0.003512	0.002910									
24059	624369	-0.069301	-0.050124	9.801001	-0.004204	-0.000989	-0.003435									
24060	624394	-0.076965	-0.051339	9.806315	-0.008307	-0.000088	-0.002079									
24061	624419	-0.093918	-0.071154	9.819822	-0.005478	-0.002933	-0.001648	-0.245628	0.412384	-30.829363						
24062	624444	-0.102671	-0.044329	9.800680	-0.001271	-0.004786	-0.000066									
24063	624469	-0.067722	-0.060026	9.797162	-0.003332	-0.001997	0.001223									
24064	624494	-0.065309	-0.059460	9.792357	-0.002605	0.001235	-0.000483									
24065	624519	-0.087985	-0.052625	9.822671	-0.008301	0.000314	0.005603	-0.244524	0.412124	-30.835709						
24066	624544	-0.066096	-0.084849	9.804353	-0.010043	0.004648	0.000831									
24067	624569	-0.090524	-0.062692	9.798235	-0.005534	-0.003520	-0.003827									
24068	624594	-0.072675	-0.051812	9.812037	-0.008649	-0.001253	-0.000417									
24069	624619	-0.076370	-0.067107	9.820221	-0.005195	-0.000240	-0.008355	-0.245423	0.412534	-30.834442						
24070	624644	-0.109531	-0.038634	9.819419	-0.006655	-0.004508	-0.006895									
24071	624669	-0.091060	-0.072050	9.817903	-0.008920	0.000863	-0.004815									
24072	624694	-0.072724	-0.070877	9.785681	-0.008067	-0.001691	-0.001444									
24073	624719	-0.075651	-0.041251	9.807264	-0.002354	-0.000687	-0.000753	-0.245837	0.412141	-30.837971						
24074	624744	-0.068790	-0.052750	9.811068	-0.010400	-0.004831	-0.003824									
24075	624769	-0.071057	-0.073667	9.815405	-0.009534	0.002535	-0.001101									
24076	624794	-0.071078	-0.060215	9.808689	-0.003196	-0.002904	-0.006773									
24077	624819	-0.061901	-0.071416	9.802405	-0.007692	-0.001159	0.002903	-0.246946	0.411729	-30.856825						
24078	624844	-0.071548	-0.064394	9.801507	-0.003047	0.001164	-0.000358									
24079	624869	-0.052245	-0.050624	9.815300	-0.005676	-0.000425	0.000791									
24080	624894	-0.078086	-0.064315	9.789549	-0.005628	-0.000560	-0.002787									
24081	624919	-0.080392	-0.045242	9.813041	-0.004210	-0.000587	0.000599	-0.246274	0.412125	-30.845903						
24082	624944	-0.073374	-0.065795	9.798144	-0.004497	0.000501	-0.000864									
24083	624969	-0.085069	-0.054810	9.812109	-0.008868	0.001511	-0.003731									
24084	624994	-0.074925	-0.052837	9.793359	0.003017	-0.001369	-0.001410									
24085	625019	-0.064502	-0.050024	9.792827	-0.008185	0.002106	-0.000975	-0.245607	0.412979	-30.840685						
24086	625044	-0.097420	-0.047320	9.808808	-0.007102	-0.005527	0.004165									
24087	625069	-0.067097	-0.050482	9.823524	-0.006378	0.001228	-0.005595									
24088	625094	-0.081276	-0.056358	9.822152	-0.009553	-0.001007	-0.000863									
24089	625119	-0.094111	-0.051604	9.813110	-0.007214	-0.000195	-0.000025	-0.246616	0.412659	-30.838684						
24090	625144	-0.079331	-0.047420	9.800099	-0.006282	0.000596	0.000164									
24091	625169	-0.084680	-0.037481	9.798199	-0.003459	-0.002187	0.000073									
24092	625194	-0.067677	-0.069671	9.805314	-0.005791	0.002784	-0.004110									
24093	625219	-0.085934	-0.050128	9.790057	-0.000516	0.001541	0.000279	-0.245595	0.413525	-30.840353						
24094	625244	-0.090616	-0.047282	9.783376	-0.004049	-0.003934	-0.000443									
24095	625269	-0.063907	-0.054554	9.783249	-0.006951	0.001419	-0.002006									
24096	625294	-0.059626	-0.071497	9.808634	-0.005865	0.003564	-0.001362									
24097	625319	-0.081764	-0.047106	9.811133	-0.004625	-0.001760	-0.001259	-0.245354	0.413896	-30.842270						
24098	625344	-0.060290	-0.087553	9.800498	-0.009479	0.000733	-0.001623									
24099	625369	-0.076327	-0.062118	9.802477	-0.007212	-0.000329	-0.002083									
24100	625394	-0.053071	-0.066537	9.832084	-0.005798	-0.002944	-0.002933									
24101	625419	-0.079547	-0.075645	9.812573	-0.011221	0.003336	-0.000384	-0.246865	0.414476	-30.840603						
24102	625444	-0.079817	-0.059645	9.824550	-0.005029	-0.000930	-0.002092									
24103	625469	-0.074856	-0.064111	9.810144	-0.003429	-0.004953	0.002554									
24104	625494	-0.080914	-0.041452	9.811127	-0.007406	-0.000459	-0.002335									
24105	625519	-0.075147	-0.078670	9.798651	-0.007200	0.001355	0.000295	-0.246844	0.414227	-30.836308						
24106	625544	-0.064727	-0.043596	9.812009	-0.004424	0.002499	0.001766									
24107	625569	-0.081640	-0.055050	9.797237	-0.010379	0.002703	-0.004548									
24108	625594	-0.076484	-0.047958	9.802959	-0.010492	-0.001274	0.003746									
24109	625619	-0.073549	-0.060787	9.813965	-0.003228	0.000586	-0.000486	-0.247600	0.415340	-30.831024						
24110	625644	-0.058099	-0.079152	9.813891	-0.004262	0.001076	-0.001000									
24111	625669	-0.073466	-0.067093	9.818762	-0.005896	-0.001588	0.000532									
24112	625694	-0.061911	-0.071359	9.794263	-0.010705	0.003155	-0.001928									
24113	625719	-0.085380	-0.049563	9.784782	-0.001974	-0.003271	-0.006710	-0.247554	0.415709	-30.827211						
24114	625744	-0.073215	-0.052835	9.821635	-0.002956	-0.002052	-0.002229									
24115	625769	-0.049965	-0.076132	9.810500	-0.005023	-0.003448	-0.004092									
24116	625794	-0.048751	-0.056641	9.809053	-0.004339	-0.000468	-0.000042									
24117	625819	-0.058211	-0.051698	9.785127	-0.007688	-0.003617	-0.000054	-0.247105	0.414811	-30.831673						
24118	625844	-0.094682	-0.051731	9.823185	-0.004813	-0.001702	-0.003184									
24119	625869	-0.069846	-0.052237	9.808676	-0.009429	0.001055	-0.002387									
24120	625894	-0.074055	-0.051630	9.799592	-0.007758	0.000362	-0.004181									
24121	625919	-0.077757	-0.054847	9.791456	-0.006513	-0.000376	-0.001633	-0.247879	0.415189	-30.836546						
24122	625944	-0.088948	-0.046307	9.813082	-0.005831	-0.001717	-0.000428									
24123	625969	-0.099360	-0.033212	9.846221	-0.010656	0.001673	-0.002375									
24124	625994	-0.083797	-0.040468	9.807305	-0.005938	0.001891	-0.000599									
24125	626019	-0.051058	-0.065187	9.809542	-0.003786	-0.001678	0.000654	-0.248314	0.415690	-30.840071						
24126	626044	-0.056463	-0.059765	9.820122	-0.000732	0.002886	0.003295									
24127	626069	-0.070461	-0.040508	9.824967	-0.002441	-0.004032	0.000450									
24128	626094	-0.074048	-0.054127	9.807258	-0.008480	-0.000669	-0.001696									
24129	626119	-0.068803	-0.087519	9.793345	-0.006859	0.000323	-0.002848	-0.247640	0.415944	-30.836338						
24130	626144	-0.064639	-0.026837	9.772682	-0.000829	-0.002785	-0.002754									
24131	626169	-0.096329	-0.028957	9.817916	-0.010230	-0.001863	-0.002846									
24132	626194	-0.080589	-0.062282	9.808737	-0.007311	-0.005671	-0.003129									
24133	626219	-0.084217	-0.060050	9.844224	-0.008182	0.000045	0.000226	-0.248137	0.414965	-30.852674						
24134	626244	-0.085549	-0.042206	9.798204	-0.003146	-0.001991	-0.000562									
24135	626269	-0.074826	-0.056745	9.790003	-0.008576	-0.003701	-0.000687									
24136	626294	-0.097181	-0.049963	9.832309	-0.003250	0.005865	-0.000139									
24137	626319	-0.086616	-0.048222	9.817874	-0.005165	0.001389	0.000098	-0.247707	0.415679	-30.864109						
24138	626344	-0.079562	-0.060054	9.789557	-0.004473	-0.002591	-0.001010									
24139	626369	-0.060997	-0.069484	9.805268	0.000849	-0.001079	-0.000060									
24140	626394	-0.054493	-0.045455	9.783671	-0.008066	0.000362	-0.001818									
24141	626419	-0.074858	-0.073302	9.821651	-0.005817	0.001958	-0.000469	-0.246899	0.415971	-30.872473						
24142	626444	-0.082624	-0.054063	9.800589	-0.002004	0.000475	-0.000302									
24143	626469	-0.070099	-0.053635	9.782314	-0.003229	-0.001745	-0.004593									
24144	626494	-0.052980	-0.063329	9.805719	-0.007501	0.000638	-0.000094									
24145	626519	-0.072648	-0.060627	9.828341	-0.007652	-0.002587	-0.001065	-0.246508	0.415998	-30.883951						
24146	626544	-0.089539	-0.065938	9.791039	-0.008929	-0.000221	0.003040									
24147	626569	-0.086039	-0.086050	9.806376	-0.008443	0.000237	-0.000469									
24148	626594	-0.073422	-0.065420	9.805346	-0.004299	-0.001885	-0.001521									
24149	626619	-0.076537	-0.046555	9.808230	-0.005977	-0.001274	-0.002219	-0.247152	0.416037	-30.894516						
24150	626644	-0.082029	-0.026144	9.804416	-0.007366	0.000513	-0.000224									
24151	626669	-0.093193	-0.019462	9.820300	-0.007550	0.000308	-0.002718									
24152	626694	-0.057901	-0.050912	9.800953	-0.004514	0.001015	-0.000872									
24153	626719	-0.069905	-0.049379	9.813476	-0.003022	0.000273	0.001362	-0.247048	0.416817	-30.897629						
24154	626744	-0.072206	-0.046900	9.806288	-0.002310	-0.001909	0.001484									
24155	626769	-0.079312	-0.047320	9.792421	-0.007287	0.001796	-0.002897									
24156	626794	-0.048256	-0.062298	9.804247	-0.008501	0.002429	0.003116									
24157	626819	-0.089573	-0.025222	9.797263	-0.006968	-0.001733	0.002395	-0.247310	0.417376	-30.895948						
24158	626844	-0.072639	-0.065309	9.824996	-0.010173	0.002389	-0.003530									
24159	626869	-0.080860	-0.063739	9.780456	-0.004540	-0.004141	0.000770									
24160	626894	-0.075959	-0.048329	9.800559	-0.005865	-0.002946	-0.003502									
24161	626919	-0.088083	-0.061968	9.783840	-0.004487	-0.000018	-0.002210	-0.247584	0.417162	-30.893507						
24162	626944	-0.065103	-0.058598	9.832150	-0.002638	-0.000317	-0.005932									
24163	626969	-0.070966	-0.042912	9.825468	-0.004497	0.000757	0.001441									
24164	626994	-0.057788	-0.063973	9.815323	-0.002885	-0.000185	-0.000560									
24165	627019	-0.062601	-0.054018	9.810071	-0.007226	-0.003734	0.002442	-0.246732	0.417135	-30.893585						
24166	627044	-0.095113	-0.044884	9.806406	-0.007068	-0.003290	-0.005291									
24167	627069	-0.076833	-0.049530	9.789056	-0.003082	-0.002319	-0.003186									
24168	627094	-0.074962	-0.066674	9.821169	-0.006545	0.000852	-0.000414									
24169	627119	-0.071131	-0.050055	9.791898	-0.006978	-0.001998	-0.003175	-0.246813	0.416637	-30.898069						
24170	627144	-0.077854	-0.051157	9.797214	-0.007503	0.000902	0.001702									
24171	627169	-0.080365	-0.038925	9.800094	-0.009385	-0.002418	-0.000034									
24172	627194	-0.071594	-0.038378	9.839845	-0.001672	0.000362	0.003862									
24173	627219	-0.064003	-0.062530	9.810095	-0.003353	0.002442	-0.002077	-0.246622	0.417291	-30.893850						
24174	627244	-0.087646	-0.067816	9.795838	-0.001588	0.001125	-0.001830									
24175	627269	-0.070388	-0.051375	9.817785	-0.005415	-0.000480	0.002775									
24176	627294	-0.088224	-0.064542	9.796784	-0.005397	0.004528	-0.005190									
24177	627319	-0.076983	-0.055179	9.812555	-0.006902	0.004059	-0.001670	-0.246080	0.419111	-30.912682						
24178	627344	-0.083916	-0.065135	9.806357	-0.005805	-0.000298	0.000922									
24179	627369	-0.069081	-0.033681	9.811544	-0.005500	-0.002228	-0.002094									
24180	627394	-0.109935	-0.037876	9.801202	-0.009339	-0.001910	-0.003165									
24181	627419	-0.089229	-0.023504	9.815484	-0.000350	-0.001423	0.002183	-0.245754	0.418717	-30.896553						
24182	627444	-0.083256	-0.074957	9.800118	-0.002600	-0.003146	-0.001276									
24183	627469	-0.068392	-0.061924	9.824006	-0.010706	0.001292	-0.000018									
24184	627494	-0.071548	-0.069257	9.811090	-0.001539	0.003633	-0.004251									
24185	627519	-0.077725	-0.067131	9.816872	-0.006945	-0.001161	-0.002019	-0.245540	0.419231	-30.870697						
24186	627544	-0.063193	-0.079853	9.794270	-0.004871	0.000037	-0.001962									
24187	627569	-0.077731	-0.060134	9.795300	-0.005306	0.001962	0.000617									
24188	627594	-0.045958	-0.083558	9.803773	-0.002611	-0.006935	0.001132									
24189	627619	-0.093392	-0.041294	9.822225	-0.006513	0.001614	-0.003541	-0.244989	0.419234	-30.875902						
24190	627644	-0.068715	-0.058685	9.798132	-0.008412	-0.001065	-0.005858									
24191	627669	-0.075072	-0.054225	9.816860	-0.004911	0.000994	-0.006172									
24192	627694	-0.068016	-0.072698	9.790462	-0.002839	0.002718	0.000037									
24193	627719	-0.072700	-0.053316	9.819240	-0.005351	-0.002666	0.002442	-0.244760	0.419709	-30.883736						
24194	627744	-0.087808	-0.024023	9.820265	-0.001821	-0.003244	0.002949									
24195	627769	-0.090314	-0.061386	9.836584	-0.004596	-0.002141	0.002383									
24196	627794	-0.077128	-0.040609	9.819735	-0.008255	-0.003889	-0.002353									
24197	627819	-0.088660	-0.034410	9.812599	-0.004105	0.000180	-0.002277	-0.244126	0.418881	-30.884193						
24198	627844	-0.086124	-0.039452	9.798692	-0.008726	0.000803	-0.004563									
24199	627869	-0.099465	-0.039746	9.807384	-0.009303	-0.002812	-0.001509									
24200	627894	-0.079577	-0.064484	9.801537	-0.003061	-0.002956	-0.002743									
24201	627919	-0.083385	-0.061030	9.792924	0.000712	-0.003019	0.000638	-0.243735	0.418222	-30.894951						
24202	627944	-0.068645	-0.065451	9.808187	-0.005572	-0.003706	0.001736									
24203	627969	-0.085552	-0.055251	9.811155	-0.005981	0.003244	-0.000975									
24204	627994	-0.103583	-0.044288	9.792065	-0.007795	-0.002794	-0.007269									
24205	628019	-0.077733	-0.057346	9.799605	-0.003877	-0.003295	-0.001334	-0.243747	0.417753	-30.896566						
24206	628044	-0.065493	-0.050056	9.795235	-0.008735	0.001189	-0.001752									
24207	628069	-0.099988	-0.045126	9.819853	-0.006031	0.000530	-0.002398									
24208	628094	-0.052386	-0.067002	9.801406	-0.004390	-0.003171	-0.001974									
24209	628119	-0.072935	-0.057312	9.801501	-0.005923	-0.006936	-0.000328	-0.244024	0.417025	-30.900589						
24210	628144	-0.065808	-0.040025	9.823989	-0.006552	0.000708	-0.005856									
24211	628169	-0.098259	-0.055029	9.786771	-0.005929	0.001241	-0.001052									
24212	628194	-0.089411	-0.053599	9.825080	-0.004713	0.001137	-0.002135									
24213	628219	-0.067958	-0.041134	9.798592	-0.008301	-0.002337	-0.001128	-0.244352	0.417570	-30.883511						
24214	628244	-0.065944	-0.050488	9.797155	-0.003026	-0.001794	-0.000760									
24215	628269	-0.054082	-0.038809	9.786540	-0.004381	-0.001831	-0.006124									
24216	628294	-0.069892	-0.055717	9.822588	-0.007407	0.003196	-0.009352									
24217	628319	-0.102028	-0.049773	9.777681	-0.008868	-0.000612	-0.002074	-0.244436	0.417873	-30.880651						
24218	628344	-0.072774	-0.040489	9.817798	-0.007036	-0.005725	0.002243									
24219	628369	-0.070602	-0.057187	9.797174	-0.003505	-0.002900	-0.001846									
24220	628394	-0.091434	-0.046102	9.828443	-0.004767	-0.001180	-0.000873									
24221	628419	-0.078859	-0.049460	9.806321	-0.009426	-0.001338	-0.005659	-0.244669	0.416767	-30.893909						
24222	628444	-0.087748	-0.063648	9.798710	-0.007372	0.002833	0.000115									
24223	628469	-0.064896	-0.067835	9.814888	-0.002132	0.002144	-0.001694									
24224	628494	-0.083273	-0.041824	9.805387	-0.005059	-0.000028	-0.001319									
24225	628519	-0.091405	-0.037219	9.804469	-0.005937	0.000027	0.002021	-0.244287	0.417961	-30.899841						
24226	628544	-0.058259	-0.062598	9.812938	-0.010023	-0.000182	0.000802									
24227	628569	-0.053352	-0.069810	9.799014	-0.005154	0.001194	-0.000291									
24228	628594	-0.072291	-0.041856	9.815390	-0.004691	-0.005490	0.000638									
24229	628619	-0.087805	-0.054388	9.785287	-0.004821	0.004673	-0.000525	-0.244499	0.418461	-30.898689						
24230	628644	-0.066232	-0.034129	9.815359	-0.000432	-0.003172	-0.003584									
24231	628669	-0.047607	-0.079580	9.815291	-0.010741	0.002252	-0.002252									
24232	628694	-0.091154	-0.059045	9.807837	-0.004625	0.000298	-0.002530									
24233	628719	-0.075853	-0.061242	9.807753	-0.006028	-0.001457	0.000721	-0.244319	0.418654	-30.913996						
24234	628744	-0.097566	-0.046498	9.816008	-0.009470	0.000472	-0.001812									
24235	628769	-0.069204	-0.059316	9.810590	-0.007424	-0.003999	-0.001842									
24236	628794	-0.082472	-0.046651	9.779013	-0.005005	-0.004487	-0.007927									
24237	628819	-0.073758	-0.077861	9.810143	-0.007468	-0.004713	-0.004151	-0.245215	0.417287	-30.911713						
24238	628844	-0.077195	-0.038677	9.815906	-0.010632	0.002961	-0.002435									
24239	628869	-0.098968	-0.048800	9.814577	-0.005612	0.001243	-0.004245									
24240	628894	-0.095681	-0.023996	9.775245	-0.006326	0.002337	0.002480									
24241	628919	-0.074451	-0.059226	9.803909	-0.002317	-0.001974	-0.000249	-0.245459	0.418405	-30.908617						
24242	628944	-0.097792	-0.032915	9.831339	-0.002977	-0.001279	0.000018									
24243	628969	-0.078687	-0.068179	9.825504	-0.004223	-0.006644	-0.002952									
24244	628994	-0.096394	-0.045895	9.783400	-0.003166	-0.000946	0.004180									
24245	629019	-0.086276	-0.058114	9.783351	-0.004309	0.002162	-0.005017	-0.244244	0.417921	-30.913050						
24246	629044	-0.071140	-0.054260	9.786151	-0.007394	0.003475	-0.000523									
24247	629069	-0.064619	-0.048767	9.811044	-0.002839	-0.001866	-0.004467									
24248	629094	-0.066870	-0.043713	9.785175	-0.006549	-0.000755	0.003932									
24249	629119	-0.064792	-0.045858	9.832137	-0.006230	0.000590	-0.003035	-0.244210	0.418571	-30.896477						
24250	629144	-0.073626	-0.050802	9.813488	-0.003923	-0.001620	-0.000753									
24251	629169	-0.087882	-0.051850	9.802531	-0.006086	-0.001654	-0.000238									
24252	629194	-0.065349	-0.063507	9.810102	-0.003800	-0.001751	-0.002159									
24253	629219	-0.092322	-0.044457	9.809749	-0.008658	0.003195	-0.000581	-0.244106	0.418773	-30.892822						
24254	629244	-0.082116	-0.050617	9.789083	-0.008574	0.000432	0.002018									
24255	629269	-0.077189	-0.069798	9.813023	0.000639	-0.002165	0.005253									
24256	629294	-0.083491	-0.056324	9.793872	0.001289	-0.000879	0.002374									
24257	629319	-0.053811	-0.065045	9.793733	-0.006773	-0.001982	0.003026	-0.242698	0.418610	-30.900206						
24258	629344	-0.070583	-0.056743	9.794777	-0.008231	-0.002472	-0.001195									
24259	629369	-0.084136	-0.059764	9.827934	-0.007471	-0.000326	0.000669									
24260	629394	-0.085846	-0.060964	9.812600	-0.004885	-0.005230	0.003263									
24261	629419	-0.082565	-0.027406	9.824074	-0.003409	-0.001213	0.004432	-0.242808	0.417774	-30.905766						
24262	629444	-0.098924	-0.041385	9.798754	-0.000066	-0.002512	0.000136									
24263	629469	-0.077825	-0.057882	9.803443	-0.003679	0.001162	0.004056									
24264	629494	-0.063397	-0.061924	9.802413	-0.004414	-0.002593	-0.002161									
24265	629519	-0.091074	-0.069681	9.819334	-0.005727	-0.003003	-0.000244	-0.241469	0.417244	-30.900425						
24266	629544	-0.097880	-0.062055	9.814094	-0.003384	0.003342	-0.005202									
24267	629569	-0.077225	-0.052238	9.776591	-0.003444	0.001742	0.000677									
24268	629594	-0.065157	-0.078140	9.802900	-0.006494	-0.001083	-0.002469									
24269	629619	-0.071148	-0.068434	9.819721	-0.003004	0.003810	0.000423	-0.240489	0.418827	-30.897980						
24270	629644	-0.066040	-0.054814	9.828794	-0.005859	-0.001277	-0.004712									
24271	629669	-0.086823	-0.046805	9.785748	-0.006738	-0.003529	0.000079									
24272	629694	-0.063984	-0.057235	9.805763	-0.001332	-0.002731	0.000830									
24273	629719	-0.083907	-0.066071	9.809714	-0.003113	-0.001158	-0.000878	-0.239610	0.418046	-30.895012						
24274	629744	-0.065701	-0.078300	9.815853	-0.004506	-0.001042	0.002131									
24275	629769	-0.074560	-0.045838	9.797680	-0.001472	-0.001402	-0.010797									
24276	629794	-0.109716	-0.033344	9.819900	-0.001939	0.004207	-0.003859									
24277	629819	-0.060980	-0.068487	9.796171	-0.006133	0.001886	0.000808	-0.238307	0.419023	-30.889719						
24278	629844	-0.076240	-0.034738	9.813023	-0.004636	-0.001238	-0.000623									
24279	629869	-0.077803	-0.065686	9.797782	-0.003235	-0.000916	-0.001559									
24280	629894	-0.073604	-0.058017	9.794394	-0.007404	-0.000289	-0.005193									
24281	629919	-0.089983	-0.073641	9.779625	-0.004348	0.000162	-0.001486	-0.237811	0.419183	-30.902884						
24282	629944	-0.068636	-0.073656	9.794843	-0.004266	-0.002410	0.001891									
24283	629969	-0.085799	-0.035994	9.800201	-0.006960	-0.002271	-0.003791									
24284	629994	-0.083533	-0.052735	9.842865	-0.006658	0.000839	0.002937									
24285	630019	-0.088689	-0.044830	9.816525	-0.008093	0.001840	0.000457	-0.238204	0.419364	-30.898758						
24286	630044	-0.073595	-0.069306	9.818374	-0.004785	0.000028	0.001715									
24287	630069	-0.069762	-0.065798	9.808761	-0.006816	-0.004584	-0.001121									
24288	630094	-0.069859	-0.062204	9.821229	-0.006846	-0.001357	0.001460									
24289	630119	-0.064776	-0.080768	9.795801	-0.008653	0.001118	-0.000513	-0.238756	0.419137	-30.889702						
24290	630144	-0.068048	-0.084568	9.797732	-0.005172	0.000349	0.002871									
24291	630169	-0.059477	-0.057794	9.822613	-0.003955	-0.000085	-0.000398									
24292	630194	-0.077091	-0.057455	9.815995	-0.005627	0.000197	-0.003660									
24293	630219	-0.093378	-0.044231	9.810316	-0.002113	-0.000188	-0.002190	-0.237842	0.419622	-30.875078						
24294	630244	-0.090088	-0.060392	9.781063	-0.004382	-0.005053	-0.001509									
24295	630269	-0.095259	-0.057496	9.835732	-0.003725	-0.002974	0.003745									
24296	630294	-0.072479	-0.045621	9.821236	-0.007223	-0.001952	-0.003342									
24297	630319	-0.051497	-0.069189	9.794758	-0.009704	-0.004186	-0.002646	-0.238114	0.418079	-30.884073						
24298	630344	-0.095829	-0.052952	9.758085	-0.001910	-0.000373	-0.001241									
24299	630369	-0.094741	-0.047047	9.806002	-0.002941	-0.002201	-0.003608									
24300	630394	-0.100874	-0.053803	9.805076	-0.007208	0.000183	0.001596									
24301	630419	-0.086293	-0.074290	9.793990	-0.003363	0.001335	0.000051	-0.237009	0.418416	-30.894861						
24302	630444	-0.076157	-0.069496	9.768045	-0.002094	-0.000499	0.002281									
24303	630469	-0.070820	-0.059704	9.812121	-0.005758	-0.001791	-0.001748									
24304	630494	-0.064598	-0.065805	9.821671	0.002831	-0.000797	0.000986									
24305	630519	-0.069109	-0.055404	9.837990	-0.009729	-0.001545	-0.003590	-0.235808	0.418243	-30.907061						
24306	630544	-0.068470	-0.047930	9.792453	-0.004201	-0.000416	0.000302									
24307	630569	-0.064630	-0.050255	9.791958	-0.003530	0.000761	0.001715									
24308	630594	-0.065630	-0.071428	9.779503	-0.002570	-0.008048	-0.001341									
24309	630619	-0.075855	-0.073916	9.803043	-0.008500	0.000344	-0.000773	-0.235179	0.417660	-30.905636						
24310	630644	-0.080719	-0.057142	9.792994	-0.007267	-0.002591	-0.001234									
24311	630669	-0.063167	-0.048339	9.789551	-0.005329	-0.003466	-0.003867									
24312	630694	-0.080395	-0.050657	9.804493	-0.005342	-0.002682	0.001638									
24313	630719	-0.128156	-0.016532	9.829182	-0.007409	0.000235	-0.001532	-0.235490	0.416905	-30.902744						
24314	630744	-0.079718	-0.065359	9.804499	-0.003484	-0.003298	-0.001568									
24315	630769	-0.089848	-0.056488	9.807426	-0.001980	-0.003909	0.002199									
24316	630794	-0.078433	-0.054827	9.800654	-0.002068	0.001177	0.003958									
24317	630819	-0.094468	-0.057144	9.781074	-0.006360	-0.002901	-0.001813	-0.234154	0.416098	-30.900852						
24318	630844	-0.078358	-0.079217	9.835175	-0.013654	-0.000134	-0.002681									
24319	630869	-0.063753	-0.057849	9.821665	-0.005691	-0.001724	0.001769									
24320	630894	-0.072660	-0.058192	9.806854	-0.004631	-0.005248	-0.000936									
24321	630919	-0.092672	-0.052050	9.788746	-0.007229	-0.003491	0.001766	-0.235296	0.415042	-30.894138						
24322	630944	-0.063564	-0.074073	9.828387	-0.007091	-0.002079	-0.003025									
24323	630969	-0.080964	-0.053188	9.815055	-0.002794	0.001350	0.000051									
24324	630994	-0.061167	-0.068070	9.808241	-0.007597	0.000045	0.000127									
24325	631019	-0.062334	-0.082875	9.786676	-0.001463	0.003426	-0.003593	-0.234691	0.415895	-30.889347						
24326	631044	-0.077393	-0.064413	9.809744	-0.000185	-0.002338	0.001308									
24327	631069	-0.072120	-0.038548	9.821229	-0.010252	-0.000784	-0.003012									
24328	631094	-0.076154	-0.063814	9.827016	-0.008970	0.002842	-0.004847									
24329	631119	-0.068769	-0.059080	9.775196	-0.006109	0.003546	-0.000121	-0.235032	0.416838	-30.894320						
24330	631144	-0.085300	-0.040369	9.803568	-0.010872	-0.001436	-0.003137									
24331	631169	-0.100980	-0.056279	9.815155	-0.002937	0.004049	0.000386									
24332	631194	-0.091649	-0.035952	9.824210	-0.007723	-0.002149	0.000116									
24333	631219	-0.080415	-0.062021	9.832304	-0.005917	-0.002575	-0.000665	-0.235647	0.417009	-30.896688						
24334	631244	-0.070851	-0.058917	9.820745	-0.010313	-0.003169	-0.004302									
24335	631269	-0.064662	-0.062657	9.819762	-0.009751	0.001809	0.000075									
24336	631294	-0.108109	-0.014212	9.819973	-0.004439	-0.001065	-0.001231									
24337	631319	-0.071991	-0.034323	9.794867	-0.007626	0.001006	-0.001851	-0.236924	0.417248	-30.880825						
24338	631344	-0.047863	-0.068364	9.810573	-0.003541	0.001012	-0.000849									
24339	631369	-0.070643	-0.061289	9.795343	-0.001629	-0.002943	0.001307									
24340	631394	-0.077640	-0.051039	9.826535	-0.009923	-0.005348	-0.002712									
24341	631419	-0.062807	-0.050859	9.799617	-0.004771	0.001307	-0.003333	-0.236451	0.416858	-30.879356						
24342	631444	-0.082373	-0.074967	9.780543	-0.003958	0.001708	-0.004032									
24343	631469	-0.086212	-0.053950	9.825623	-0.006646	-0.001484	0.001650									
24344	631494	-0.051970	-0.081121	9.805315	-0.003111	0.001273	-0.002384									
24345	631519	-0.096751	-0.052049	9.816566	-0.008582	0.005373	-0.000036	-0.236336	0.418338	-30.895559						
24346	631544	-0.088432	-0.066199	9.820843	-0.003293	-0.000642	0.004521									
24347	631569	-0.080047	-0.044419	9.802574	-0.001751	0.000915	-0.001357									
24348	631594	-0.096387	-0.037697	9.809856	-0.009072	0.002199	-0.004147									
24349	631619	-0.092920	-0.057280	9.824697	-0.002895	0.006887	-0.001003	-0.235454	0.420153	-30.897846						
24350	631644	-0.098673	-0.037486	9.796440	-0.003365	0.002867	-0.007871									
24351	631669	-0.060383	-0.063444	9.825021	-0.001006	0.001380	-0.001040									
24352	631694	-0.066853	-0.063155	9.794831	-0.002567	-0.001934	-0.002401									
24353	631719	-0.077615	-0.046905	9.811199	-0.004442	-0.003251	-0.001693	-0.233777	0.420486	-30.901423						
24354	631744	-0.083651	-0.050014	9.785336	-0.010192	-0.002845	-0.004110									
24355	631769	-0.066752	-0.069719	9.789573	-0.005287	-0.000896	-0.005582									
24356	631794	-0.068760	-0.059274	9.789097	-0.002015	-0.001678	-0.006618									
24357	631819	-0.079847	-0.066649	9.824627	-0.005560	-0.001915	-0.000149	-0.233782	0.419927	-30.920311						
24358	631844	-0.079769	-0.056601	9.792036	-0.002453	-0.001220	0.001827									
24359	631869	-0.079967	-0.042608	9.799217	-0.009085	-0.003596	-0.002900									
24360	631894	-0.073166	-0.043541	9.776658	-0.005585	-0.003336	-0.001244									
24361	631919	-0.063882	-0.077053	9.802983	-0.007141	-0.000334	0.000502	-0.233938	0.419184	-30.920877						
24362	631944	-0.079008	-0.058862	9.813606	-0.004958	0.003505	-0.000376									
24363	631969	-0.068537	-0.053685	9.823608	-0.003606	-0.003235	-0.002083									
24364	631994	-0.081146	-0.057481	9.783888	-0.004984	-0.002372	-0.005977									
24365	632019	-0.087519	-0.054187	9.806936	-0.009219	-0.003341	-0.003026	-0.233882	0.418851	-30.910656						
24366	632044	-0.097366	-0.028118	9.801708	-0.011250	0.000554	-0.002293									
24367	632069	-0.099044	-0.022323	9.829510	-0.003655	0.000429	-0.002253									
24368	632094	-0.064105	-0.059989	9.804897	-0.005932	-0.000450	-0.002442									
24369	632119	-0.096647	-0.050480	9.808414	-0.008292	-0.000097	0.000314	-0.234743	0.419390	-30.916059						
24370	632144	-0.088762	-0.034249	9.808361	-0.006345	-0.001030	0.001456									
24371	632169	-0.046573	-0.057404	9.807687	-0.006020	0.002840	0.001216									
24372	632194	-0.054404	-0.071289	9.804850	-0.008804	-0.004233	-0.001501									
24373	632219	-0.093378	-0.045255	9.810321	-0.008637	0.000793	-0.000249	-0.235692	0.419634	-30.919260						
24374	632244	-0.073072	-0.065300	9.803986	-0.007167	-0.003551	0.000103									
24375	632269	-0.115929	-0.032221	9.810435	-0.005032	0.001629	-0.000508									
24376	632294	-0.066859	-0.069160	9.814018	-0.005592	-0.005077	-0.001702									
24377	632319	-0.054160	-0.061051	9.821146	-0.007674	-0.003761	-0.001752	-0.236021	0.418559	-30.917109						
24378	632344	-0.097977	-0.055154	9.804583	-0.002986	-0.002708	-0.001059									
24379	632369	-0.100627	-0.038199	9.807955	-0.009426	0.001550	0.000140									
24380	632394	-0.093911	-0.044817	9.815120	-0.004396	0.002097	0.001858									
24381	632419	-0.087164	-0.051906	9.817963	-0.005174	0.001881	-0.001597	-0.235837	0.419408	-30.900108						
24382	632444	-0.077891	-0.064926	9.809278	-0.006275	-0.001228	-0.000465									
24383	632469	-0.076510	-0.061160	9.809750	-0.004824	0.000596	-0.005637									
24384	632494	-0.089947	-0.056641	9.817493	-0.003825	-0.004457	-0.000359									
24385	632519	-0.073061	-0.076422	9.819810	-0.004247	0.001332	0.002551	-0.235254	0.419312	-30.883059						
24386	632544	-0.085702	-0.047926	9.805488	-0.006215	0.000577	-0.001666									
24387	632569	-0.090304	-0.024664	9.804063	-0.004363	0.002541	-0.001661									
24388	632594	-0.095915	-0.037720	9.816080	-0.002034	0.001685	0.000440									
24389	632619	-0.096550	-0.049679	9.786842	-0.006762	0.002053	-0.001849	-0.234716	0.420773	-30.889193						
24390	632644	-0.075450	-0.066104	9.794413	-0.003013	0.004238	-0.002874									
24391	632669	-0.071174	-0.072426	9.806381	-0.008292	0.003889	-0.000945									
24392	632694	-0.052701	-0.064290	9.819227	-0.003420	-0.000787	0.000620									
24393	632719	-0.046436	-0.064639	9.813451	-0.005001	-0.001530	-0.001940	-0.234227	0.422083	-30.894882						
24394	632744	-0.074108	-0.059556	9.803987	-0.001858	-0.000387	-0.005719									
24395	632769	-0.055890	-0.065388	9.791444	-0.008589	0.001183	-0.000127									
24396	632794	-0.051735	-0.088447	9.783273	-0.005119	0.002600	0.002623									
24397	632819	-0.095513	-0.045688	9.841482	-0.004385	0.003508	-0.001210	-0.233777	0.423565	-30.909584						
24398	632844	-0.062252	-0.052124	9.792429	-0.002183	0.002456	0.000952									
24399	632869	-0.070663	-0.064607	9.794861	-0.004007	0.000051	0.004400									
24400	632894	-0.069345	-0.063598	9.823145	-0.002618	-0.006706	-0.005938									
24401	632919	-0.082086	-0.031889	9.817440	-0.005081	-0.005133	-0.002852	-0.232456	0.422717	-30.921572						
24402	632944	-0.105016	-0.031130	9.807014	-0.007252	0.001399	0.000960									
24403	632969	-0.092822	-0.054732	9.813678	-0.004709	0.001441	-0.001986									
24404	632994	-0.063993	-0.075162	9.805380	-0.005370	0.004458	-0.001010									
24405	633019	-0.073455	-0.068918	9.792964	-0.006214	0.000647	-0.000514	-0.232502	0.424309	-30.910824						
24406	633044	-0.059329	-0.064782	9.811108	-0.008166	-0.000289	-0.001672									
24407	633069	-0.096870	-0.036005	9.825666	-0.004299	-0.005108	0.003800									
24408	633094	-0.123171	-0.028534	9.812389	-0.004429	0.003062	0.000520									
24409	633119	-0.074159	-0.063083	9.815024	-0.004290	0.000429	0.001906	-0.232209	0.424508	-30.908106						
24410	633144	-0.079996	-0.032742	9.778601	-0.008558	0.000022	-0.001918									
24411	633169	-0.071738	-0.064003	9.815483	-0.005791	-0.002961	-0.004184									
24412	633194	-0.077879	-0.059985	9.793947	-0.006247	0.001474	-0.004350									
24413	633219	-0.046329	-0.065841	9.797131	-0.007625	-0.003244	-0.000729	-0.232936	0.424285	-30.900494						
24414	633244	-0.072480	-0.062553	9.778576	-0.009663	-0.001162	-0.001416									
24415	633269	-0.060898	-0.052548	9.816382	-0.009274	-0.001206	0.001402									
24416	633294	-0.067638	-0.044260	9.802508	0.001770	-0.001527	0.002137									
24417	633319	-0.061091	-0.069505	9.805356	-0.010438	-0.003041	-0.002064	-0.233567	0.423759	-30.897188						
24418	633344	-0.089814	-0.050080	9.788251	-0.007519	-0.004795	-0.004125									
24419	633369	-0.079818	-0.030990	9.820801	-0.005694	-0.001396	0.003943									
24420	633394	-0.077038	-0.058531	9.820299	-0.010654	-0.004141	-0.001428									
24421	633419	-0.076117	-0.050105	9.799687	-0.008830	0.000791	0.000514	-0.234932	0.422870	-30.901190						
24422	633444	-0.071747	-0.063674	9.820281	-0.009902	-0.001417	0.001018									
24423	633469	-0.061849	-0.064152	9.831725	-0.005536	-0.000824	-0.000979									
24424	633494	-0.090808	-0.063796	9.813664	-0.006302	0.001024	-0.005116									
24425	633519	-0.079193	-0.040523	9.826064	-0.003812	-0.002335	0.002789	-0.235264	0.422809	-30.886539						
24426	633544	-0.060344	-0.050259	9.793382	-0.006118	-0.002442	-0.000283									
24427	633569	-0.087612	-0.048912	9.808368	-0.004888	-0.001001	0.000109									
24428	633594	-0.088003	-0.031780	9.835702	-0.004022	0.001574	-0.005695									
24429	633619	-0.083875	-0.052521	9.827523	-0.007652	-0.000277	0.000380	-0.235200	0.422978	-30.892000						
24430	633644	-0.067834	-0.066189	9.804921	-0.004552	0.000410	-0.001097									
24431	633669	-0.067824	-0.063661	9.797239	-0.001836	-0.002687	0.000472									
24432	633694	-0.063971	-0.067408	9.794836	-0.006104	0.000897	-0.002307									
24433	633719	-0.090796	-0.055438	9.797364	-0.003651	0.000498	0.000885	-0.234192	0.423320	-30.890566						
24434	633744	-0.079576	-0.055761	9.831339	-0.003658	0.000429	-0.002569									
24435	633769	-0.060322	-0.059852	9.800081	-0.007184	0.003468	0.001417									
24436	633794	-0.078256	-0.067760	9.805452	-0.006647	-0.003867	0.001572									
24437	633819	-0.099236	-0.076342	9.823293	-0.004624	-0.003129	0.000226	-0.234029	0.423327	-30.877550						
24438	633844	-0.067411	-0.074510	9.824097	-0.002855	-0.000577	0.001961									
24439	633869	-0.088420	-0.066607	9.816055	-0.005305	0.002532	0.002050									
24440	633894	-0.063900	-0.077019	9.805380	-0.004293	0.000159	-0.002378									
24441	633919	-0.101732	-0.028858	9.816111	-0.008626	0.000212	-0.002553	-0.233732	0.424146	-30.886246						
24442	633944	-0.047647	-0.058708	9.829270	-0.004505	0.003120	-0.000192									
24443	633969	-0.094565	-0.051054	9.786832	-0.005931	-0.000645	-0.002630									
24444	633994	-0.072870	-0.059081	9.826038	-0.014049	0.002104	-0.006121									
24445	634019	-0.084046	-0.068287	9.806440	-0.004528	-0.000094	-0.000848	-0.234582	0.425262	-30.892464						
24446	634044	-0.108727	-0.047646	9.831488	-0.006241	-0.000641	-0.000325									
24447	634069	-0.056848	-0.065928	9.798150	-0.007007	-0.000601	-0.002635									
24448	634094	-0.072586	-0.093147	9.793447	-0.007693	-0.004917	0.001697									
24449	634119	-0.083984	-0.057014	9.786304	-0.001261	-0.005074	-0.003245	-0.234454	0.424142	-30.905666						
24450	634144	-0.068968	-0.065231	9.833209	-0.007239	-0.001244	-0.000399									
24451	634169	-0.085374	-0.041054	9.822739	-0.005989	-0.002570	-0.001301									
24452	634194	-0.067681	-0.068841	9.789580	-0.006741	-0.004897	0.000732									
