// General information: 
//  MT Manager version: 2022.0.0 
//  XDA version: 2022.0.0 build 7085 rev 119802 built on 2022-11-08
// Device information: 
//  DeviceId: 037004D1
//  ProductCode: MTi-300-2A5G4
//  Firmware Version: 1.4.1
//  Hardware Version: 2.1.0
// Device settings: 
//  Filter Profile: general(39.16)
//  Option Flags: Orientation Smoother Disabled, Position/Velocity Smoother Disabled, Continuous Zero Rotation Update Disabled, AHS Disabled, ICC Disabled
// Coordinate system: ENU
PacketCounter	SampleTimeFine	Acc_X	Acc_Y	Acc_Z	Gyr_X	Gyr_Y	Gyr_Z	Roll	Pitch	Yaw	Latitude	Longitude	Altitude	Vel_E	Vel_N	Vel_U
16518	435865	-0.075143	0.193445	-9.827863	-0.002107	-0.003384	0.000370									
16519	435890	-0.064167	0.192646	-9.826479	-0.004263	-0.001813	0.000000	178.475693	0.371592	-50.902924						
16520	435915	-0.068585	0.197034	-9.805354	-0.008002	0.003478	-0.000346									
16521	435940	-0.076381	0.173357	-9.814426	-0.007175	-0.000834	-0.003384									
16522	435965	-0.065733	0.198089	-9.812572	-0.005312	-0.000991	-0.001276									
16523	435990	-0.052587	0.178900	-9.817908	-0.004722	-0.001562	-0.001988	178.475784	0.371277	-50.902199						
16524	436015	-0.047267	0.200136	-9.804513	-0.007589	-0.001937	-0.002109									
16525	436040	-0.025437	0.164162	-9.795027	-0.003868	-0.004512	-0.002198									
16526	436065	-0.062889	0.209964	-9.841344	-0.006153	-0.001536	-0.008187									
16527	436090	-0.069210	0.215883	-9.827895	-0.007588	-0.001805	-0.001657	178.475861	0.372403	-50.899673						
16528	436115	-0.096944	0.215189	-9.809062	-0.004855	-0.001697	-0.005309									
16529	436140	-0.057179	0.199684	-9.815970	-0.005187	0.001207	0.000726									
16530	436165	-0.052178	0.206451	-9.790586	-0.003117	-0.001726	0.000186									
16531	436190	-0.054628	0.218158	-9.811672	-0.005300	-0.003636	-0.001673	178.476898	0.372939	-50.900383						
16532	436215	-0.062035	0.204706	-9.809224	-0.003147	-0.000890	-0.001599									
16533	436240	-0.041918	0.191042	-9.799271	-0.002556	0.000800	0.000007									
16534	436265	-0.029624	0.208481	-9.810350	-0.004703	0.004117	-0.000800									
16535	436290	-0.048281	0.219474	-9.834229	-0.001612	-0.001189	-0.002564	178.478867	0.372222	-50.899105						
16536	436315	-0.072321	0.227443	-9.814939	-0.002848	-0.004429	-0.002259									
16537	436340	-0.053134	0.192492	-9.838030	-0.005257	-0.000599	0.001861									
16538	436365	-0.046532	0.205854	-9.841906	-0.002572	0.003244	-0.002225									
16539	436390	-0.061466	0.211916	-9.841355	-0.006184	0.000413	0.001045	178.480133	0.372099	-50.901077						
16540	436415	-0.072029	0.195909	-9.860954	-0.005357	0.002162	-0.004715									
16541	436440	-0.091748	0.188882	-9.823936	-0.001295	0.000678	-0.006652									
16542	436465	-0.049052	0.195820	-9.807372	-0.000538	0.001350	-0.002232									
16543	436490	-0.062730	0.220444	-9.814988	-0.002277	-0.004025	0.002608	178.482468	0.371786	-50.897797						
16544	436515	-0.062484	0.205623	-9.807305	-0.002155	0.002223	-0.001717									
16545	436540	-0.064032	0.219683	-9.826485	-0.006501	0.000083	-0.001389									
16546	436565	-0.070424	0.220003	-9.789057	-0.007878	0.001413	-0.000294									
16547	436590	-0.056015	0.211757	-9.800159	-0.002387	-0.002417	0.001977	178.483429	0.371275	-50.896961						
16548	436615	-0.054879	0.196161	-9.800153	-0.003745	-0.002445	-0.001667									
16549	436640	-0.096885	0.218442	-9.834949	-0.004780	-0.002214	-0.004604									
16550	436665	-0.031990	0.202725	-9.808901	-0.004561	-0.000857	-0.006081									
16551	436690	-0.067221	0.198998	-9.806800	-0.011724	0.001991	0.000493	178.483566	0.371497	-50.895157						
16552	436715	-0.039770	0.188795	-9.833309	-0.005729	-0.000232	-0.004537									
16553	436740	-0.043403	0.207048	-9.819869	-0.004372	0.001343	-0.004275									
16554	436765	-0.063780	0.188062	-9.805390	-0.004777	-0.002016	-0.003648									
16555	436790	-0.081868	0.229159	-9.808661	-0.006448	-0.001518	0.000204	178.484192	0.371556	-50.889656						
16556	436815	-0.060809	0.193165	-9.824088	-0.005738	0.002618	0.002143									
16557	436840	-0.068030	0.197874	-9.831246	-0.005040	0.000171	-0.003570									
16558	436865	-0.061642	0.221869	-9.842797	-0.004990	-0.005437	-0.003345									
16559	436890	-0.060501	0.198209	-9.814509	-0.004615	-0.002976	-0.001736	178.484955	0.372073	-50.896240						
16560	436915	-0.076500	0.209448	-9.787592	-0.006002	0.000413	-0.003377									
16561	436940	-0.061004	0.201534	-9.816437	-0.003856	0.001292	-0.001451									
16562	436965	-0.053732	0.190235	-9.817426	-0.002466	-0.002103	-0.000134									
16563	436990	-0.058654	0.203392	-9.811165	-0.007427	-0.000893	0.001034	178.485794	0.371939	-50.892693						
16564	437015	-0.067641	0.187342	-9.791949	-0.005776	-0.000350	0.001548									
16565	437040	-0.042299	0.190793	-9.814130	-0.003111	-0.002106	0.000505									
16566	437065	-0.052965	0.175288	-9.830841	-0.006171	-0.000432	-0.003062									
16567	437090	-0.058686	0.216975	-9.827459	-0.009792	0.003445	-0.000021	178.485916	0.371541	-50.895222						
16568	437115	-0.058404	0.187345	-9.817394	-0.006406	0.003108	-0.004385									
16569	437140	-0.057133	0.195380	-9.813574	-0.007178	0.000770	-0.006700									
16570	437165	-0.075325	0.178991	-9.842234	-0.004554	-0.001039	-0.002043									
16571	437190	-0.071939	0.199397	-9.811094	-0.005659	0.001901	-0.001511	178.486191	0.370587	-50.891281						
16572	437215	-0.060282	0.221395	-9.810194	-0.006066	0.002599	-0.003693									
16573	437240	-0.085409	0.211258	-9.817263	-0.007059	-0.000115	0.002070									
16574	437265	-0.079186	0.213427	-9.835509	-0.003663	-0.002900	-0.001989									
16575	437290	-0.082952	0.205669	-9.827833	-0.001101	-0.003113	-0.001487	178.487305	0.370780	-50.888672						
16576	437315	-0.084972	0.220044	-9.834525	-0.005186	-0.003313	-0.003076									
16577	437340	-0.052038	0.217506	-9.826530	-0.008133	0.003339	-0.003612									
16578	437365	-0.043278	0.191736	-9.814594	-0.003859	-0.000452	-0.000380									
16579	437390	-0.063850	0.201083	-9.817369	-0.008073	0.001013	-0.005734	178.487366	0.370423	-50.888901						
16580	437415	-0.063924	0.218434	-9.835108	-0.007093	0.000651	-0.003181									
16581	437440	-0.082216	0.216809	-9.807691	-0.005460	-0.000151	0.000532									
16582	437465	-0.068629	0.210310	-9.837005	-0.005899	-0.001135	-0.003958									
16583	437490	-0.058056	0.199772	-9.822670	-0.006399	0.000788	-0.004850	178.487473	0.370113	-50.884201						
16584	437515	-0.079361	0.224762	-9.828326	-0.004809	-0.002851	0.001085									
16585	437540	-0.066014	0.188239	-9.817353	-0.005892	0.001192	-0.002031									
16586	437565	-0.057863	0.211863	-9.803988	-0.007242	0.001293	-0.000425									
16587	437590	-0.044904	0.207941	-9.815558	-0.006497	-0.002044	-0.002305	178.487656	0.370151	-50.886162						
16588	437615	-0.076364	0.241612	-9.811088	-0.004330	-0.004205	-0.003661									
16589	437640	-0.059986	0.197740	-9.814510	-0.004427	-0.000715	-0.000960									
16590	437665	-0.067437	0.207356	-9.795787	-0.007172	-0.002693	0.000647									
16591	437690	-0.036769	0.202705	-9.810797	-0.005154	-0.000155	-0.002293	178.488297	0.370957	-50.882549						
16592	437715	-0.056939	0.218886	-9.804465	-0.000235	0.006184	-0.002660									
16593	437740	-0.072841	0.196232	-9.816845	-0.008339	-0.000402	-0.001328									
16594	437765	-0.069268	0.210783	-9.804399	-0.008634	0.001149	0.000218									
16595	437790	-0.033565	0.183121	-9.830466	-0.005244	-0.001048	0.000584	178.488739	0.369802	-50.882450						
16596	437815	-0.043390	0.192048	-9.800217	-0.005682	-0.003567	0.001082									
16597	437840	-0.071179	0.193906	-9.852323	-0.005576	-0.002863	-0.000514									
16598	437865	-0.080530	0.236842	-9.815863	-0.003301	-0.004047	-0.000396									
16599	437890	-0.066690	0.187501	-9.800095	-0.009835	-0.005770	-0.000262	178.488922	0.371812	-50.886726						
16600	437915	-0.070371	0.193234	-9.810626	-0.003956	0.004773	0.001058									
16601	437940	-0.052677	0.177396	-9.812149	-0.005630	-0.003713	-0.005130									
16602	437965	-0.038720	0.209921	-9.816066	-0.005800	0.000228	-0.000621									
16603	437990	-0.061989	0.203550	-9.823606	-0.003895	-0.003612	-0.001223	178.489822	0.371840	-50.884056						
16604	438015	-0.065297	0.190712	-9.791471	-0.009514	0.000679	0.001755									
16605	438040	-0.060841	0.231142	-9.824594	-0.007822	0.001213	-0.003685									
16606	438065	-0.058127	0.203180	-9.826989	-0.007744	-0.000973	-0.000368									
16607	438090	-0.057228	0.204077	-9.826515	-0.001813	-0.002727	-0.000007	178.489639	0.371780	-50.882526						
16608	438115	-0.094358	0.243451	-9.821549	-0.004429	-0.000651	0.000004									
16609	438140	-0.071307	0.212071	-9.795769	-0.007682	-0.002968	-0.001021									
16610	438165	-0.076114	0.203180	-9.840317	-0.008236	0.000308	-0.001706									
16611	438190	-0.072680	0.202526	-9.857597	-0.007284	-0.002944	0.004996	178.489334	0.372348	-50.886364						
16612	438215	-0.051989	0.213412	-9.842370	-0.003286	-0.002702	-0.002185									
16613	438240	-0.079225	0.182261	-9.840778	-0.004438	-0.002393	0.000830									
16614	438265	-0.064027	0.186070	-9.828862	-0.008376	0.002757	-0.003807									
16615	438290	-0.064871	0.206756	-9.820733	-0.004093	-0.001352	-0.000702	178.490097	0.372560	-50.877617						
16616	438315	-0.057464	0.185549	-9.822677	-0.003402	-0.003086	-0.002570									
16617	438340	-0.043957	0.209774	-9.812202	-0.007136	0.001873	-0.004454									
16618	438365	-0.068389	0.207701	-9.788592	-0.007895	-0.000192	0.000718									
16619	438390	-0.082540	0.198103	-9.792347	-0.008284	0.000450	0.003101	178.489929	0.372393	-50.881733						
16620	438415	-0.038253	0.202581	-9.805994	-0.003535	-0.002834	-0.001867									
16621	438440	-0.041303	0.190064	-9.824684	-0.004973	-0.001816	-0.000001									
16622	438465	-0.066187	0.201696	-9.831749	-0.003126	-0.003268	0.002423									
16623	438490	-0.068829	0.228455	-9.844199	-0.003462	-0.003080	0.001082	178.491425	0.373640	-50.882732						
16624	438515	-0.055529	0.211414	-9.867265	-0.007103	0.003102	0.000036									
16625	438540	-0.052294	0.191257	-9.821747	-0.001609	-0.003241	-0.001745									
16626	438565	-0.068456	0.181913	-9.811595	-0.005358	-0.001898	-0.002877									
16627	438590	-0.068285	0.212384	-9.815426	-0.008309	0.000499	-0.003944	178.491882	0.373570	-50.881966						
16628	438615	-0.074381	0.201316	-9.812525	-0.005175	-0.001636	-0.003968									
16629	438640	-0.070730	0.205445	-9.797212	-0.006835	-0.003725	-0.001924									
16630	438665	-0.041031	0.193062	-9.801192	-0.008658	-0.004928	-0.006473									
16631	438690	-0.052475	0.197774	-9.806885	-0.009488	-0.002551	-0.003259	178.491226	0.375138	-50.877071						
16632	438715	-0.043681	0.196911	-9.839042	-0.009280	-0.003190	-0.003323									
16633	438740	-0.094104	0.209980	-9.868996	-0.003828	0.000516	-0.001526									
16634	438765	-0.078259	0.220755	-9.845105	-0.003794	-0.000839	-0.001463									
16635	438790	-0.077669	0.205359	-9.828324	-0.009617	-0.000557	-0.004199	178.491089	0.375438	-50.875790						
16636	438815	-0.050173	0.182029	-9.833733	-0.006622	0.000085	0.000146									
16637	438840	-0.060448	0.200608	-9.821218	-0.001569	0.001848	-0.002106									
16638	438865	-0.083918	0.201672	-9.812962	-0.003156	-0.002891	-0.003403									
16639	438890	-0.060211	0.197197	-9.781925	-0.003979	-0.001040	-0.004669	178.492569	0.375442	-50.875553						
16640	438915	-0.049976	0.193609	-9.812166	-0.008330	-0.000592	-0.001779									
16641	438940	-0.076214	0.202138	-9.834570	-0.008743	-0.005496	0.001849									
16642	438965	-0.053828	0.200341	-9.825572	-0.005464	-0.001957	0.002372									
16643	438990	-0.061111	0.213616	-9.828420	-0.007258	-0.002317	-0.002238	178.491959	0.376608	-50.878960						
16644	439015	-0.039244	0.180170	-9.827558	-0.004730	-0.001431	-0.001280									
16645	439040	-0.050310	0.193308	-9.828464	-0.005500	0.003004	-0.001061									
16646	439065	-0.042579	0.182914	-9.831376	0.002956	-0.002071	0.000110									
16647	439090	-0.068946	0.186550	-9.803919	-0.005826	0.002930	-0.004131	178.493729	0.375957	-50.875328						
16648	439115	-0.053252	0.218257	-9.788667	-0.002557	0.002728	-0.003567									
16649	439140	-0.061711	0.208385	-9.799167	-0.006655	-0.003405	-0.004612									
16650	439165	-0.069850	0.202991	-9.856657	-0.004166	-0.003093	-0.000261									
16651	439190	-0.066027	0.219353	-9.806821	-0.005427	0.000815	0.001426	178.494705	0.376086	-50.875416						
16652	439215	-0.068824	0.214109	-9.807769	-0.004965	0.000510	0.002575									
16653	439240	-0.069605	0.207809	-9.829333	-0.004733	-0.001167	0.000395									
16654	439265	-0.052040	0.206772	-9.809282	-0.005478	0.000295	-0.000374									
16655	439290	-0.037188	0.155737	-9.805991	-0.011246	-0.003023	0.003722	178.494553	0.376219	-50.873783						
16656	439315	-0.045565	0.176875	-9.805481	-0.003356	-0.002764	-0.003338									
16657	439340	-0.064318	0.196244	-9.811141	-0.007583	-0.001670	0.001799									
16658	439365	-0.061075	0.214041	-9.827456	-0.006863	-0.000571	-0.003704									
16659	439390	-0.042265	0.201600	-9.838091	-0.001667	0.000808	-0.002688	178.495422	0.376524	-50.871105						
16660	439415	-0.059498	0.222689	-9.798223	-0.009049	-0.002354	-0.004217									
16661	439440	-0.044118	0.191968	-9.827534	-0.005291	0.000501	0.001355									
16662	439465	-0.059065	0.201094	-9.815481	-0.006792	0.001368	-0.002089									
16663	439490	-0.070800	0.191182	-9.827880	-0.004652	-0.000215	-0.005242	178.495392	0.376340	-50.869991						
16664	439515	-0.072819	0.235592	-9.818771	-0.006260	0.002930	-0.000864									
16665	439540	-0.042278	0.200712	-9.838096	-0.006783	-0.000958	-0.002107									
16666	439565	-0.066036	0.221285	-9.807779	-0.007163	0.000973	-0.000489									
16667	439590	-0.059626	0.196598	-9.803967	-0.003320	-0.003338	0.001079	178.495667	0.376090	-50.873882						
16668	439615	-0.057582	0.203758	-9.834658	-0.004327	0.000320	0.000720									
16669	439640	-0.043842	0.244290	-9.839056	-0.003169	-0.004441	-0.001808									
16670	439665	-0.054466	0.222390	-9.837553	-0.006056	0.000088	-0.002673									
16671	439690	-0.061536	0.205197	-9.807316	-0.004943	0.003663	-0.000800	178.496674	0.375838	-50.874016						
16672	439715	-0.064410	0.206208	-9.815929	-0.002658	-0.002231	-0.001033									
16673	439740	-0.037221	0.199920	-9.813675	-0.005117	-0.003110	0.001593									
16674	439765	-0.064340	0.199440	-9.807305	-0.004239	0.001349	-0.000048									
16675	439790	-0.051335	0.200089	-9.836128	-0.005198	0.001332	-0.001453	178.497849	0.375897	-50.872452						
16676	439815	-0.056271	0.204055	-9.821733	-0.005528	-0.002740	-0.004740									
16677	439840	-0.034373	0.213965	-9.837657	0.001122	-0.002626	-0.000854									
16678	439865	-0.061590	0.211704	-9.828893	-0.003853	-0.004698	0.003190									
16679	439890	-0.050707	0.183801	-9.826550	-0.006013	0.000475	-0.003049	178.499451	0.376968	-50.872284						
16680	439915	-0.076976	0.217292	-9.803399	-0.006728	0.001374	-0.001122									
16681	439940	-0.063490	0.210078	-9.821211	-0.002727	-0.002363	-0.001404									
16682	439965	-0.071076	0.196405	-9.798643	-0.006199	-0.003718	-0.003903									
16683	439990	-0.059593	0.195520	-9.793899	-0.005578	0.003198	-0.002265	178.500061	0.376894	-50.872025						
16684	440015	-0.074247	0.219059	-9.789516	-0.008039	0.000124	-0.001501									
16685	440040	-0.075173	0.212386	-9.791919	-0.005008	-0.005051	-0.002503									
16686	440065	-0.072553	0.210991	-9.821166	-0.007592	-0.003794	0.002442									
16687	440090	-0.058625	0.203355	-9.813559	-0.001308	0.001590	-0.001267	178.500565	0.377600	-50.870922						
16688	440115	-0.070129	0.203411	-9.816385	-0.009677	-0.003007	-0.003760									
16689	440140	-0.072446	0.201074	-9.820204	-0.012298	-0.004660	-0.002353									
16690	440165	-0.055193	0.202742	-9.829877	-0.003983	0.001232	0.001109									
16691	440190	-0.062203	0.197252	-9.844227	-0.008114	0.000112	-0.005157	178.499329	0.378224	-50.871796						
16692	440215	-0.063152	0.216087	-9.807793	-0.004721	0.000441	0.000153									
16693	440240	-0.055811	0.203504	-9.814544	-0.008845	-0.000799	-0.003175									
16694	440265	-0.060386	0.191680	-9.824107	-0.002572	-0.003193	0.000125									
16695	440290	-0.085874	0.220006	-9.834043	-0.004129	0.001277	-0.005800	178.500076	0.378252	-50.867218						
16696	440315	-0.056003	0.213277	-9.803513	-0.004384	-0.000395	-0.001898									
16697	440340	-0.058446	0.187382	-9.815480	-0.010303	-0.000885	0.000283									
16698	440365	-0.059503	0.205158	-9.833219	-0.007440	0.002077	0.005676									
16699	440390	-0.089922	0.200255	-9.844084	-0.010239	-0.003204	-0.001453	178.499069	0.378264	-50.866817						
16700	440415	-0.039409	0.191896	-9.821330	-0.003105	-0.000234	0.001867									
16701	440440	-0.087111	0.198343	-9.816299	-0.003286	0.003296	-0.003549									
16702	440465	-0.076517	0.191657	-9.833130	-0.005241	-0.001371	0.002192									
16703	440490	-0.095927	0.221734	-9.830156	-0.004299	0.001225	0.001308	178.500427	0.377521	-50.869343						
16704	440515	-0.064456	0.216470	-9.827435	-0.010851	-0.000127	-0.004125									
16705	440540	-0.081590	0.205506	-9.814408	-0.004426	-0.003234	-0.002816									
16706	440565	-0.063134	0.208511	-9.808268	-0.006206	-0.007716	-0.004242									
16707	440590	-0.072949	0.194938	-9.796718	-0.004902	-0.001942	0.001547	178.500290	0.379098	-50.867397						
16708	440615	-0.058027	0.204170	-9.834175	-0.001962	0.002103	0.000855									
16709	440640	-0.095662	0.222090	-9.794206	-0.001106	0.003082	-0.001439									
16710	440665	-0.045032	0.186668	-9.822252	-0.006232	0.001903	0.000802									
16711	440690	-0.068958	0.225585	-9.812083	-0.006336	-0.001405	-0.004658	178.501694	0.377982	-50.868061						
16712	440715	-0.064048	0.229414	-9.842303	-0.005628	-0.001316	-0.001071									
16713	440740	-0.079090	0.209732	-9.838872	-0.002731	-0.002365	-0.004162									
16714	440765	-0.064849	0.195585	-9.803460	-0.004344	-0.001878	-0.002420									
16715	440790	-0.077451	0.195838	-9.831208	-0.001252	0.003661	-0.002144	178.503342	0.377967	-50.865337						
16716	440815	-0.054822	0.200092	-9.813100	0.000280	0.000016	0.003402									
16717	440840	-0.063858	0.207385	-9.828403	-0.005415	0.000305	0.002076									
16718	440865	-0.040586	0.198310	-9.808861	-0.002880	-0.005195	0.002612									
16719	440890	-0.035861	0.200043	-9.792588	-0.004512	0.002259	0.002593	178.505173	0.377982	-50.867893						
16720	440915	-0.064543	0.212795	-9.807302	-0.007558	-0.001031	-0.002281									
16721	440940	-0.036033	0.188684	-9.824697	-0.003855	-0.000635	0.002763									
16722	440965	-0.053221	0.191709	-9.815504	-0.008853	0.001520	-0.004254									
16723	440990	-0.054413	0.199796	-9.789607	-0.005658	0.003709	-0.002711	178.505096	0.377182	-50.870667						
16724	441015	-0.074392	0.209327	-9.811562	-0.003484	0.005680	-0.002514									
16725	441040	-0.026099	0.181772	-9.800784	-0.004202	-0.004067	-0.000076									
16726	441065	-0.074892	0.210005	-9.825950	-0.000544	-0.003177	-0.007242									
16727	441090	-0.070051	0.203936	-9.825482	-0.007036	-0.001742	-0.005682	178.506561	0.377389	-50.867062						
16728	441115	-0.077482	0.225647	-9.819223	-0.007835	0.000131	0.001186									
16729	441140	-0.054190	0.213180	-9.792974	-0.008701	-0.003441	-0.004216									
16730	441165	-0.058374	0.187743	-9.836583	-0.011913	-0.006847	-0.002752									
16731	441190	-0.049274	0.182479	-9.829905	-0.007977	-0.004065	-0.000764	178.504974	0.379123	-50.862896						
16732	441215	-0.071955	0.187891	-9.799588	-0.008039	-0.004330	-0.003453									
16733	441240	-0.057963	0.228631	-9.818851	-0.002903	0.003497	0.000294									
16734	441265	-0.085393	0.223796	-9.832123	-0.007434	0.005877	0.002879									
16735	441290	-0.072841	0.208426	-9.844659	-0.001733	-0.001124	0.000007	178.505722	0.378239	-50.861816						
16736	441315	-0.052939	0.209323	-9.823184	-0.002562	0.000797	0.000207									
16737	441340	-0.044170	0.191899	-9.820827	-0.010036	0.002401	-0.005396									
16738	441365	-0.073638	0.200414	-9.846078	-0.003365	0.001816	0.000347									
16739	441390	-0.035470	0.178035	-9.809836	-0.005656	0.001517	-0.001444	178.506256	0.377010	-50.863338						
16740	441415	-0.080700	0.218175	-9.832623	-0.006740	-0.002889	-0.003251									
16741	441440	-0.053299	0.193556	-9.813592	-0.005923	-0.002559	-0.006266									
16742	441465	-0.021472	0.195484	-9.793137	-0.003107	0.003621	-0.003877									
16743	441490	-0.051348	0.186374	-9.812157	-0.003263	-0.001605	-0.002231	178.507172	0.377237	-50.860332						
16744	441515	-0.052928	0.218154	-9.842353	-0.002478	0.001828	-0.004075									
16745	441540	-0.054777	0.198662	-9.813577	-0.000474	0.001481	-0.000948									
16746	441565	-0.043495	0.203336	-9.794942	-0.005393	0.002995	-0.006175									
16747	441590	-0.025079	0.201017	-9.850163	0.000711	-0.001851	0.001594	178.509720	0.376318	-50.861572						
16748	441615	-0.064297	0.208425	-9.830791	-0.010426	0.002913	-0.002766									
16749	441640	-0.082154	0.212094	-9.811059	-0.003092	-0.003085	-0.005250									
16750	441665	-0.061413	0.194278	-9.808266	-0.001118	0.001210	-0.003891									
16751	441690	-0.084977	0.208696	-9.802885	-0.010090	0.000347	-0.001755	178.509811	0.375845	-50.857670						
16752	441715	-0.062437	0.209359	-9.826972	-0.009623	0.001903	-0.000854									
16753	441740	-0.061122	0.208669	-9.816427	-0.007276	-0.001998	-0.003697									
16754	441765	-0.050849	0.197108	-9.828941	-0.004424	0.000761	-0.001517									
16755	441790	-0.056712	0.193301	-9.802543	-0.002357	-0.002041	-0.003649	178.510056	0.375759	-50.857723						
16756	441815	-0.083741	0.220423	-9.795226	-0.008251	0.000696	-0.003296									
16757	441840	-0.054309	0.204583	-9.826535	-0.001314	0.001596	-0.001003									
16758	441865	-0.031477	0.196603	-9.809867	-0.006193	-0.001849	-0.003451									
16759	441890	-0.086673	0.202272	-9.823963	-0.004975	0.000378	0.001751	178.510712	0.375345	-50.858547						
16760	441915	-0.096313	0.239779	-9.802834	-0.004183	0.001544	0.000414									
16761	441940	-0.060101	0.210829	-9.831293	-0.007093	-0.001930	-0.003313									
16762	441965	-0.058269	0.208465	-9.801581	-0.006241	0.003955	-0.001042									
16763	441990	-0.059496	0.197862	-9.818345	-0.012566	0.002237	0.000310	178.510025	0.374204	-50.857597						
16764	442015	-0.046828	0.207881	-9.815064	-0.006263	-0.001723	-0.003639									
16765	442040	-0.037881	0.183886	-9.824215	-0.004353	-0.001298	0.000006									
16766	442065	-0.067529	0.202879	-9.846118	-0.004761	-0.002922	-0.005244									
16767	442090	-0.065958	0.176799	-9.816400	-0.005603	-0.002353	-0.003320	178.510651	0.375113	-50.853710						
16768	442115	-0.084945	0.205426	-9.807195	-0.008000	-0.001235	-0.003435									
16769	442140	-0.047227	0.162730	-9.812175	-0.004521	-0.002261	0.000007									
16770	442165	-0.051061	0.181237	-9.844759	-0.007628	-0.000641	-0.000171									
16771	442190	-0.063893	0.207634	-9.814498	-0.005636	0.003268	0.000997	178.510590	0.374931	-50.856907						
16772	442215	-0.074710	0.188759	-9.799097	-0.004777	0.001979	-0.004134									
16773	442240	-0.079082	0.208186	-9.828803	-0.006993	0.001760	0.000742									
16774	442265	-0.047970	0.198651	-9.833267	-0.005867	0.002225	-0.002015									
16775	442290	-0.063277	0.207560	-9.836551	-0.008203	0.003406	-0.002129	178.510513	0.373296	-50.855404						
16776	442315	-0.048931	0.194208	-9.824644	-0.003822	-0.000198	-0.005749									
16777	442340	-0.094877	0.202449	-9.808586	-0.003515	0.000136	-0.003630									
16778	442365	-0.055141	0.216477	-9.795853	-0.006777	-0.001265	0.001043									
16779	442390	-0.049636	0.201101	-9.812175	-0.002234	-0.005905	-0.002323	178.511810	0.374056	-50.857006						
16780	442415	-0.058906	0.179809	-9.814512	-0.012134	-0.006008	-0.001784									
16781	442440	-0.057625	0.191915	-9.804455	-0.004391	-0.002134	-0.001852									
16782	442465	-0.028398	0.182909	-9.812276	-0.003918	0.000705	-0.003567									
16783	442490	-0.073541	0.227826	-9.835066	-0.008728	0.003713	-0.004236	178.511261	0.374304	-50.851879						
16784	442515	-0.054756	0.185700	-9.797759	-0.008386	0.000492	-0.006880									
16785	442540	-0.078441	0.217188	-9.797647	-0.008292	-0.001751	0.000595									
16786	442565	-0.022726	0.185708	-9.805110	-0.006734	0.003235	-0.001755									
16787	442590	-0.058393	0.184446	-9.814029	-0.002164	0.002488	0.000349	178.511215	0.373378	-50.853588						
16788	442615	-0.054130	0.223059	-9.822701	-0.002697	-0.003465	-0.002947									
16789	442640	-0.060115	0.213063	-9.821224	-0.010425	0.001249	0.003238									
16790	442665	-0.052705	0.192862	-9.832768	-0.002450	0.000528	-0.006579									
16791	442690	-0.056287	0.200111	-9.809747	-0.006869	-0.003092	-0.007801	178.511642	0.373788	-50.848793						
16792	442715	-0.051114	0.181099	-9.838041	-0.006896	-0.001787	-0.000755									
16793	442740	-0.057221	0.202953	-9.815489	-0.001678	-0.000988	-0.000833									
16794	442765	-0.053815	0.201631	-9.819822	-0.002451	0.001256	0.001936									
16795	442790	-0.045841	0.209800	-9.818910	-0.003299	-0.000238	0.001167	178.513199	0.373709	-50.846909						
16796	442815	-0.041336	0.194700	-9.818916	-0.002263	0.001450	-0.000492									
16797	442840	-0.049479	0.205350	-9.835656	-0.009207	0.000946	-0.000349									
16798	442865	-0.064753	0.197017	-9.807300	-0.001687	0.003462	0.001115									
16799	442890	-0.031716	0.179030	-9.809867	-0.005414	-0.000019	0.000151	178.514160	0.372536	-50.839115						
16800	442915	-0.020772	0.185007	-9.817579	-0.008018	0.001279	-0.003485									
16801	442940	-0.078462	0.196908	-9.840309	-0.001203	-0.002475	-0.006592									
16802	442965	-0.088153	0.204773	-9.832115	-0.006637	-0.003977	-0.002234									
16803	442990	-0.057450	0.185464	-9.819792	-0.002854	-0.000565	-0.002681	178.515106	0.373094	-50.839085						
16804	443015	-0.051507	0.206858	-9.816001	-0.003165	0.001426	-0.003181									
16805	443040	-0.073358	0.197966	-9.813009	-0.002001	-0.001001	-0.002807									
16806	443065	-0.083815	0.190482	-9.797132	-0.002564	0.003195	0.001188									
16807	443090	-0.029953	0.190849	-9.804114	-0.006135	0.000472	-0.003314	178.516754	0.372224	-50.842728						
16808	443115	-0.075050	0.204751	-9.788558	-0.006457	-0.001274	-0.000748									
16809	443140	-0.068543	0.196719	-9.815428	-0.006068	0.002539	-0.000603									
16810	443165	-0.046163	0.209220	-9.840957	-0.006625	-0.000170	-0.001262									
16811	443190	-0.053903	0.191897	-9.802560	-0.002192	-0.006932	0.000486	178.517303	0.372742	-50.841129						
16812	443215	-0.057682	0.200719	-9.820756	-0.005868	-0.004163	-0.003649									
16813	443240	-0.057093	0.194087	-9.821245	-0.005454	-0.002997	-0.002877									
16814	443265	-0.037473	0.184233	-9.811272	-0.008301	-0.001684	-0.000432									
16815	443290	-0.057761	0.181914	-9.831301	-0.007331	0.001869	-0.004129	178.517075	0.373466	-50.843597						
16816	443315	-0.081419	0.191159	-9.804341	-0.006129	0.000089	-0.002019									
16817	443340	-0.077166	0.199504	-9.824018	-0.002283	-0.002627	-0.006528									
16818	443365	-0.069586	0.207804	-9.828373	-0.006993	-0.002763	-0.002293									
16819	443390	-0.038430	0.200772	-9.839067	-0.007752	0.003286	-0.001107	178.517380	0.373475	-50.841553						
16820	443415	-0.080277	0.213490	-9.803873	-0.010137	0.000153	0.001448									
16821	443440	-0.064970	0.177731	-9.813527	-0.005189	0.003338	0.000745									
16822	443465	-0.070072	0.199979	-9.813025	-0.005561	-0.003640	-0.001918									
16823	443490	-0.040021	0.170694	-9.829948	-0.005233	0.002955	0.005224	178.517258	0.372727	-50.840286						
16824	443515	-0.054166	0.182448	-9.803520	-0.004330	0.000124	-0.001137									
16825	443540	-0.076301	0.201460	-9.821147	-0.009054	-0.005950	0.002883									
16826	443565	-0.075308	0.209688	-9.835056	-0.003603	-0.002767	-0.001724									
16827	443590	-0.070824	0.191641	-9.825964	-0.008783	-0.000735	-0.003688	178.517166	0.373748	-50.836441						
16828	443615	-0.071872	0.222438	-9.797213	-0.004621	-0.002719	0.000072									
16829	443640	-0.080521	0.195921	-9.806262	-0.004396	-0.000004	-0.001581									
16830	443665	-0.064120	0.183763	-9.804909	-0.004433	0.003482	0.001381									
16831	443690	-0.053301	0.197863	-9.815499	-0.007008	0.001878	-0.001185	178.517853	0.373056	-50.838333						
16832	443715	-0.057047	0.198508	-9.827473	-0.010228	0.002527	-0.004241									
16833	443740	-0.067287	0.210134	-9.827427	-0.001608	-0.005504	-0.001808									
16834	443765	-0.054699	0.183301	-9.800636	0.001249	-0.002873	-0.002578									
16835	443790	-0.052788	0.196570	-9.826056	-0.003438	-0.000453	-0.006838	178.519485	0.373697	-50.838165						
16836	443815	-0.051077	0.209402	-9.826557	-0.002879	-0.003463	-0.000645									
16837	443840	-0.082776	0.187276	-9.802890	-0.002617	0.004536	-0.001179									
16838	443865	-0.069187	0.208625	-9.818316	-0.009564	-0.001898	0.001751									
16839	443890	-0.039313	0.213476	-9.801682	-0.007597	0.000522	0.002077	178.519836	0.373411	-50.838188						
16840	443915	-0.045449	0.213109	-9.815076	-0.004567	-0.000721	-0.000562									
16841	443940	-0.061185	0.188931	-9.829842	-0.004436	0.003608	-0.000218									
16842	443965	-0.058289	0.183932	-9.840885	-0.006457	-0.003462	0.000069									
16843	443990	-0.055049	0.194373	-9.841387	-0.003487	-0.000639	-0.001015	178.520737	0.373268	-50.836212						
16844	444015	-0.049312	0.188658	-9.830395	-0.005957	-0.001007	0.000076									
16845	444040	-0.063748	0.189527	-9.806349	-0.007880	0.001019	-0.003999									
16846	444065	-0.053048	0.187683	-9.838020	0.000004	0.002649	0.000983									
16847	444090	-0.063993	0.184549	-9.827905	-0.003697	0.004128	-0.002588	178.521851	0.371996	-50.836117						
16848	444115	-0.034887	0.204548	-9.805051	-0.005192	0.001600	0.004508									
16849	444140	-0.067970	0.217840	-9.802977	-0.003769	-0.001603	0.000779									
16850	444165	-0.070255	0.209716	-9.802959	-0.002761	-0.000744	0.003153									
16851	444190	-0.080677	0.217482	-9.820167	-0.004970	0.002107	-0.000605	178.523056	0.371447	-50.835075						
16852	444215	-0.059032	0.208604	-9.840885	-0.006008	0.000937	0.002657									
16853	444240	-0.068232	0.222329	-9.845158	-0.006661	-0.000684	0.004055									
16854	444265	-0.049522	0.205854	-9.835184	-0.012024	-0.003037	0.001495									
16855	444290	-0.080635	0.208354	-9.813933	-0.003397	-0.001274	-0.000501	178.522644	0.371683	-50.839333						
16856	444315	-0.057454	0.190947	-9.836096	-0.000192	-0.002132	-0.005645									
16857	444340	-0.066182	0.230869	-9.814492	-0.005434	-0.003311	0.001094									
16858	444365	-0.056734	0.202495	-9.813574	-0.004612	-0.001046	-0.001460									
16859	444390	-0.046925	0.184952	-9.841911	-0.001167	-0.007428	-0.000411	178.524597	0.373376	-50.836624						
16860	444415	-0.047241	0.198261	-9.809796	-0.001621	-0.005046	-0.000530									
16861	444440	-0.056979	0.212822	-9.811174	0.000544	-0.004891	-0.003158									
16862	444465	-0.050959	0.203095	-9.816473	-0.002110	0.004546	-0.003545									
16863	444490	-0.048533	0.236306	-9.818409	-0.002068	0.003518	-0.000034	178.527466	0.373350	-50.836182						
16864	444515	-0.039575	0.194561	-9.805986	-0.006537	-0.001077	-0.001581									
16865	444540	-0.070444	0.198723	-9.828369	-0.003691	-0.000323	-0.002733									
16866	444565	-0.046804	0.185144	-9.847179	-0.007273	-0.002052	0.000140									
16867	444590	-0.061868	0.212904	-9.845660	-0.003949	0.002459	0.001438	178.528000	0.373181	-50.836308						
16868	444615	-0.067696	0.246766	-9.831270	-0.003968	-0.001098	0.000720									
16869	444640	-0.057070	0.194553	-9.824602	-0.003329	-0.001800	-0.005114									
16870	444665	-0.068495	0.224912	-9.801536	-0.001436	0.001924	0.005016									
16871	444690	-0.065167	0.216789	-9.794847	-0.003466	-0.003153	-0.002624	178.529861	0.373460	-50.837193						
16872	444715	-0.043871	0.207131	-9.827064	-0.003849	-0.003217	-0.001346									
16873	444740	-0.074951	0.207417	-9.807727	-0.006518	0.000335	-0.001314									
16874	444765	-0.034622	0.185653	-9.810326	-0.006457	-0.001730	-0.005943									
16875	444790	-0.066236	0.211664	-9.836054	0.000650	0.000146	-0.001208	178.531158	0.373817	-50.837803						
16876	444815	-0.069579	0.213256	-9.849464	0.000595	-0.002499	-0.001547									
16877	444840	-0.068670	0.196974	-9.805844	-0.001638	-0.002411	-0.000958									
16878	444865	-0.095607	0.218968	-9.807631	-0.003399	-0.003545	-0.005758									
16879	444890	-0.072843	0.199943	-9.816372	-0.001192	0.001724	-0.000876	178.533966	0.374487	-50.832993						
16880	444915	-0.048250	0.209725	-9.817934	0.000232	-0.001158	-0.002754									
16881	444940	-0.059521	0.174514	-9.842792	-0.009111	0.001714	-0.001432									
16882	444965	-0.047708	0.194650	-9.786775	-0.008972	0.003850	0.001779									
16883	444990	-0.061509	0.189832	-9.796301	-0.004067	-0.004648	-0.004230	178.534424	0.374227	-50.833462						
16884	445015	-0.075714	0.182507	-9.793819	-0.006506	-0.004236	-0.003456									
16885	445040	-0.049214	0.178757	-9.839974	-0.002766	-0.005007	-0.000396									
16886	445065	-0.067688	0.202495	-9.819265	-0.007059	-0.002693	-0.000438									
16887	445090	-0.055830	0.209879	-9.834198	-0.001669	-0.005898	-0.004628	178.535446	0.376488	-50.830173						
16888	445115	-0.076938	0.216928	-9.811560	-0.004748	0.000818	-0.003752									
16889	445140	-0.068886	0.209191	-9.797225	-0.004013	-0.003928	-0.000194									
16890	445165	-0.068909	0.220269	-9.806326	-0.004385	-0.000200	-0.001456									
16891	445190	-0.038036	0.179236	-9.797367	-0.005555	-0.004157	-0.003140	178.536377	0.377269	-50.830055						
16892	445215	-0.052049	0.175637	-9.820787	-0.004612	0.000890	-0.000750									
16893	445240	-0.043657	0.177882	-9.807883	-0.002863	-0.002240	-0.002560									
16894	445265	-0.059639	0.200920	-9.802057	-0.008994	-0.000095	-0.004774									
16895	445290	-0.062878	0.195853	-9.820257	-0.002614	-0.004306	-0.006028	178.537262	0.377825	-50.828690						
16896	445315	-0.059246	0.200393	-9.799184	-0.009124	-0.004281	-0.002936									
16897	445340	-0.074181	0.193914	-9.823069	-0.005907	0.001581	-0.000352									
16898	445365	-0.068617	0.212102	-9.833174	-0.004071	0.001933	0.000025									
16899	445390	-0.082954	0.208942	-9.821592	-0.003357	0.001033	-0.006442	178.537643	0.377502	-50.827885						
16900	445415	-0.079584	0.204282	-9.825924	-0.004874	-0.001574	-0.005811									
16901	445440	-0.080888	0.198709	-9.835994	-0.001425	-0.003050	-0.001287									
16902	445465	-0.101224	0.241028	-9.856019	-0.003809	0.001806	-0.000420									
16903	445490	-0.077097	0.202122	-9.835044	-0.005433	0.000559	-0.000736	178.539032	0.377535	-50.826759						
16904	445515	-0.051066	0.204015	-9.812644	-0.005859	-0.000295	-0.002408									
16905	445540	-0.056948	0.195190	-9.768024	-0.007442	-0.000313	0.000861									
16906	445565	-0.075742	0.208518	-9.755960	-0.005251	-0.001058	-0.001204									
16907	445590	-0.019511	0.182177	-9.786436	-0.007352	-0.001542	-0.001013	178.538925	0.377690	-50.827305						
16908	445615	-0.063573	0.211961	-9.812583	-0.008562	-0.003763	-0.003703									
16909	445640	-0.067455	0.189711	-9.761271	-0.003767	-0.006260	-0.005458									
16910	445665	-0.035404	0.202928	-9.792582	-0.007008	0.001813	-0.003046									
16911	445690	-0.039610	0.180882	-9.846263	-0.004087	0.000581	0.000852	178.539169	0.378502	-50.824905						
16912	445715	-0.044680	0.184579	-9.873067	-0.004186	0.003211	-0.005662									
16913	445740	-0.017174	0.192693	-9.881845	-0.006656	-0.003406	-0.002176									
16914	445765	-0.058629	0.227140	-9.875408	-0.005500	-0.003639	-0.002366									
16915	445790	-0.052043	0.182537	-9.840439	-0.003079	0.000659	-0.001581	178.539993	0.378680	-50.823807						
16916	445815	-0.050790	0.183066	-9.808807	-0.003774	0.000516	-0.003569									
16917	445840	-0.065845	0.205187	-9.808734	-0.006488	-0.000232	0.000916									
16918	445865	-0.070741	0.200284	-9.769395	-0.007112	0.003363	-0.002196									
16919	445890	-0.069618	0.208984	-9.749754	-0.008491	-0.003627	-0.000696	178.539886	0.378376	-50.822742						
16920	445915	-0.057521	0.212011	-9.785297	-0.005017	-0.002526	-0.000378									
16921	445940	-0.083884	0.218625	-9.774134	-0.005135	0.001596	0.001507									
16922	445965	-0.049960	0.222659	-9.791085	-0.005864	0.000031	-0.000748									
16923	445990	-0.058141	0.212900	-9.842333	-0.005755	0.000221	-0.004262	178.540375	0.378170	-50.824196						
16924	446015	-0.043006	0.187993	-9.846243	-0.007753	0.001156	-0.000161									
16925	446040	-0.052339	0.206357	-9.842838	-0.007749	-0.000964	0.000344									
16926	446065	-0.054034	0.192565	-9.845702	-0.004151	0.000189	-0.002348									
16927	446090	-0.049969	0.192631	-9.813610	-0.005409	-0.000745	-0.005230	178.540375	0.377926	-50.821869						
16928	446115	-0.058395	0.209364	-9.797272	-0.005718	-0.004666	0.000700									
16929	446140	-0.057786	0.208165	-9.816449	-0.000823	-0.004067	-0.000650									
16930	446165	-0.086886	0.199370	-9.788028	-0.004117	-0.000910	-0.003506									
16931	446190	-0.049876	0.207357	-9.783414	-0.004789	-0.001431	0.000142	178.541748	0.379202	-50.820995						
16932	446215	-0.090670	0.208627	-9.804293	-0.007987	0.002703	-0.000657									
16933	446240	-0.072551	0.215398	-9.832195	-0.003794	-0.002502	0.003271									
16934	446265	-0.080865	0.213341	-9.858982	-0.004071	0.001800	-0.003044									
16935	446290	-0.054503	0.185456	-9.841379	-0.007136	-0.002837	-0.005750	178.542068	0.379021	-50.819744						
16936	446315	-0.043340	0.174324	-9.850062	-0.008644	-0.000983	-0.001509									
16937	446340	-0.078082	0.209396	-9.846547	-0.005515	-0.002725	0.002827									
16938	446365	-0.052658	0.191596	-9.839483	-0.007164	-0.003476	-0.002363									
16939	446390	-0.057323	0.175654	-9.824589	-0.007243	-0.002702	-0.000502	178.541550	0.380122	-50.819633						
16940	446415	-0.053131	0.188140	-9.833243	-0.006007	-0.001648	-0.002100									
16941	446440	-0.054382	0.203056	-9.813592	-0.007322	0.000006	0.001438									
16942	446465	-0.056862	0.174509	-9.813562	-0.007492	0.001037	-0.001118									
16943	446490	-0.071177	0.205256	-9.788576	-0.004415	0.003029	0.001380	178.541534	0.379457	-50.820873						
16944	446515	-0.047980	0.182571	-9.804502	-0.005701	-0.001521	-0.006521									
16945	446540	-0.062655	0.193625	-9.764645	-0.007294	-0.001149	-0.000173									
16946	446565	-0.071127	0.186482	-9.770838	-0.005734	-0.004160	-0.001858									
16947	446590	-0.070482	0.193153	-9.804879	-0.003123	0.000077	-0.002867	178.541992	0.380142	-50.817192						
16948	446615	-0.071973	0.205222	-9.818773	-0.004014	0.000399	0.002964									
16949	446640	-0.058412	0.194670	-9.831296	-0.003958	0.002255	-0.001571									
16950	446665	-0.068994	0.197342	-9.828846	-0.003521	-0.001277	0.000398									
16951	446690	-0.069612	0.187364	-9.860002	-0.002567	0.000535	-0.002795	178.543564	0.379552	-50.817734						
16952	446715	-0.069167	0.192589	-9.856646	-0.004438	0.002947	-0.006814									
16953	446740	-0.057654	0.198317	-9.818366	-0.006840	-0.001794	-0.003375									
16954	446765	-0.042324	0.199155	-9.829470	-0.007202	-0.002117	-0.000373									
16955	446790	-0.082380	0.206292	-9.835980	-0.003657	-0.000964	-0.000182	178.544006	0.379549	-50.818165						
16956	446815	-0.061899	0.201605	-9.819785	-0.007008	0.003745	-0.004369									
16957	446840	-0.064965	0.211963	-9.815933	-0.007921	-0.001884	-0.005679									
16958	446865	-0.064845	0.237697	-9.795806	-0.005901	0.002851	-0.009312									
16959	446890	-0.058618	0.197751	-9.813091	-0.005133	-0.000598	0.000659	178.543884	0.378707	-50.815361						
16960	446915	-0.070887	0.226306	-9.801045	-0.005355	0.002098	-0.004320									
16961	446940	-0.063375	0.195165	-9.801075	-0.007150	-0.000001	-0.006381									
16962	446965	-0.079810	0.217432	-9.812021	-0.010708	-0.000185	-0.000668									
16963	446990	-0.064338	0.204513	-9.825524	-0.007190	-0.002640	-0.002231	178.543121	0.378539	-50.812580						
16964	447015	-0.067399	0.220138	-9.824074	-0.009033	-0.002995	-0.003888									
16965	447040	-0.065227	0.204870	-9.848531	-0.006883	-0.006111	0.000121									
16966	447065	-0.056382	0.196973	-9.855279	-0.005206	-0.000592	0.002190									
16967	447090	-0.058791	0.183826	-9.833208	-0.007251	-0.000833	-0.001706	178.542648	0.379740	-50.812386						
16968	447115	-0.046915	0.188237	-9.833746	-0.004111	0.001423	0.002079									
16969	447140	-0.060133	0.184928	-9.844711	-0.006500	-0.000109	-0.001901									
16970	447165	-0.055078	0.186041	-9.820768	-0.006711	-0.001538	-0.003316									
16971	447190	-0.027866	0.174689	-9.805558	-0.002414	0.001957	-0.002986	178.543411	0.379193	-50.811291						
16972	447215	-0.079787	0.210582	-9.801956	-0.006790	-0.000955	-0.001389									
16973	447240	-0.038302	0.204794	-9.793052	-0.006017	0.001198	0.000730									
16974	447265	-0.062051	0.208573	-9.813540	-0.002404	0.001441	-0.003500									
16975	447290	-0.070664	0.209877	-9.812551	-0.003526	-0.001340	-0.000246	178.544312	0.378841	-50.811348						
16976	447315	-0.059845	0.217508	-9.803493	-0.007237	0.001167	-0.000477									
16977	447340	-0.041916	0.203854	-9.826115	-0.007272	0.000139	0.000161									
16978	447365	-0.045772	0.202664	-9.815065	-0.004229	0.000702	-0.001706									
16979	447390	-0.019258	0.180726	-9.817592	-0.005527	0.001520	-0.001831	178.544418	0.378028	-50.809711						
16980	447415	-0.087943	0.224613	-9.827807	-0.004555	-0.002782	0.000648									
16981	447440	-0.043216	0.189366	-9.815079	-0.000559	0.002062	0.000086									
16982	447465	-0.058533	0.202231	-9.830342	-0.002339	-0.000092	0.002252									
16983	447490	-0.061496	0.213128	-9.831285	-0.001431	0.003335	-0.000352	178.546722	0.377337	-50.811253						
16984	447515	-0.059829	0.190799	-9.826975	-0.004306	0.001089	-0.001325									
16985	447540	-0.072261	0.191991	-9.819719	-0.006743	0.001429	-0.003487									
16986	447565	-0.052235	0.187832	-9.813116	-0.003417	0.003755	-0.000413									
16987	447590	-0.084378	0.203571	-9.816794	-0.002308	-0.000869	0.003214	178.547913	0.376251	-50.812000						
16988	447615	-0.075680	0.202938	-9.821626	-0.008319	0.003347	0.001650									
16989	447640	-0.056563	0.179364	-9.785763	-0.009350	0.005451	-0.001924									
16990	447665	-0.062228	0.185922	-9.821693	-0.003767	-0.001930	-0.002617									
16991	447690	-0.067788	0.217389	-9.833649	-0.004117	-0.003044	-0.004801	178.547821	0.375415	-50.813278						
16992	447715	-0.051078	0.178659	-9.831813	-0.005592	0.001389	-0.002402									
16993	447740	-0.068369	0.185780	-9.814945	-0.007474	0.004576	-0.002764									
16994	447765	-0.074168	0.198910	-9.839848	-0.004961	-0.002268	0.000325									
16995	447790	-0.063812	0.208119	-9.843263	-0.006686	-0.004305	-0.000575	178.547867	0.375198	-50.810879						
16996	447815	-0.066736	0.205022	-9.827901	-0.008984	-0.004217	-0.000119									
16997	447840	-0.062688	0.188774	-9.820257	-0.004628	0.001208	-0.004141									
16998	447865	-0.073801	0.191841	-9.813961	-0.005512	-0.003313	-0.001852									
16999	447890	-0.056629	0.196863	-9.819797	-0.005154	0.001585	-0.003172	178.547974	0.375592	-50.811058						
17000	447915	-0.075194	0.194193	-9.813468	-0.002444	0.001320	0.001693									
17001	447940	-0.037936	0.190623	-9.827563	-0.004926	0.000626	-0.001322									
17002	447965	-0.067628	0.197189	-9.816393	-0.004587	-0.000207	-0.001968									
17003	447990	-0.062013	0.189258	-9.786710	-0.007129	-0.002635	-0.002678	178.548828	0.375413	-50.808575						
17004	448015	-0.053670	0.188479	-9.826045	-0.003280	-0.005144	-0.001422									
17005	448040	-0.052379	0.194037	-9.816949	-0.002676	-0.003645	0.002299									
17006	448065	-0.055711	0.199280	-9.818372	-0.004514	-0.000194	0.001293									
17007	448090	-0.073010	0.217198	-9.827402	-0.006740	0.001496	-0.002912	178.549942	0.376166	-50.808167						
17008	448115	-0.067105	0.205640	-9.839405	-0.007389	0.000337	0.003618									
17009	448140	-0.069576	0.196688	-9.813030	-0.008468	-0.002597	-0.002417									
17010	448165	-0.044125	0.189559	-9.826581	-0.003332	-0.001410	-0.002490									
17011	448190	-0.075423	0.197191	-9.788074	-0.009784	-0.001192	0.000218	178.549377	0.376542	-50.805347						
17012	448215	-0.085761	0.198283	-9.809587	-0.005451	-0.000998	-0.003059									
17013	448240	-0.071346	0.199951	-9.838909	-0.010727	-0.001867	-0.002600									
17014	448265	-0.072077	0.174503	-9.825477	-0.006773	-0.003920	-0.003901									
17015	448290	-0.070065	0.186850	-9.790494	-0.009552	-0.000685	-0.002337	178.548309	0.377333	-50.801872						
17016	448315	-0.065671	0.190532	-9.812096	-0.006074	-0.001392	-0.000180									
17017	448340	-0.045141	0.189367	-9.813150	-0.004984	0.000434	-0.001581									
17018	448365	-0.071188	0.166910	-9.794322	-0.006546	-0.000763	-0.002991									
17019	448390	-0.064521	0.213211	-9.805868	-0.002639	0.001054	-0.002220	178.548981	0.377140	-50.805340						
17020	448415	-0.059974	0.223048	-9.791030	-0.008596	0.001723	-0.000666									
17021	448440	-0.056958	0.186500	-9.821239	-0.006202	0.002471	-0.002396									
17022	448465	-0.060877	0.196165	-9.835119	-0.007759	-0.004904	-0.002560									
17023	448490	-0.063805	0.199234	-9.824088	-0.005794	-0.002152	0.001933	178.548492	0.377246	-50.805412						
17024	448515	-0.047886	0.211146	-9.811707	-0.007880	-0.004841	-0.000063									
17025	448540	-0.079478	0.195194	-9.820655	-0.004649	-0.001949	-0.001466									
17026	448565	-0.050077	0.216170	-9.833739	-0.003260	0.002393	-0.003941									
17027	448590	-0.067095	0.200774	-9.833172	-0.006117	0.000288	0.001185	178.548935	0.377527	-50.801502						
17028	448615	-0.065241	0.201178	-9.824069	-0.008264	-0.000454	0.003231									
17029	448640	-0.049578	0.194475	-9.807851	-0.008146	-0.002646	0.000335									
17030	448665	-0.079310	0.226165	-9.827374	-0.003922	-0.000708	-0.001715									
17031	448690	-0.040984	0.210354	-9.847209	-0.006427	-0.002821	-0.004409	178.548676	0.378171	-50.804073						
17032	448715	-0.066534	0.182332	-9.806805	-0.003745	-0.002517	-0.003518									
17033	448740	-0.050286	0.202639	-9.847156	-0.006601	0.005434	-0.000586									
17034	448765	-0.050378	0.195372	-9.813118	-0.000963	0.004829	0.001630									
17035	448790	-0.056376	0.207580	-9.802541	-0.005157	0.001717	-0.004260	178.549896	0.376520	-50.802280						
17036	448815	-0.037570	0.190449	-9.815112	-0.006348	-0.002943	-0.001657									
17037	448840	-0.042771	0.193876	-9.825150	-0.006555	-0.000627	-0.002667									
17038	448865	-0.057082	0.225569	-9.804474	-0.003187	0.000536	0.000790									
17039	448890	-0.070330	0.215992	-9.805838	-0.004490	-0.001238	-0.002737	178.550537	0.376835	-50.801460						
17040	448915	-0.082145	0.217965	-9.823041	-0.002296	-0.001840	-0.000696									
17041	448940	-0.054831	0.199124	-9.806390	-0.007907	-0.000004	-0.001256									
17042	448965	-0.066297	0.198356	-9.796741	-0.007929	0.002767	-0.001301									
17043	448990	-0.070450	0.182592	-9.797685	-0.003619	-0.002509	-0.002104	178.550980	0.376760	-50.799740						
17044	449015	-0.082349	0.199687	-9.835503	-0.004144	-0.004460	-0.006408									
17045	449040	-0.055757	0.198640	-9.808787	-0.006141	0.001067	0.001629									
17046	449065	-0.072845	0.230133	-9.803436	-0.002632	0.000866	0.000598									
17047	449090	-0.041085	0.178503	-9.839053	-0.011612	-0.004070	-0.000691	178.551056	0.377404	-50.799671						
17048	449115	-0.079415	0.197289	-9.830709	-0.007443	-0.000378	-0.000492									
17049	449140	-0.057129	0.196946	-9.823630	-0.004163	-0.001554	-0.003189									
17050	449165	-0.075157	0.185955	-9.801010	-0.004898	0.002117	-0.000289									
17051	449190	-0.054012	0.205044	-9.792970	-0.003593	0.002639	-0.006819	178.551743	0.376719	-50.798347						
17052	449215	-0.065592	0.197572	-9.839897	-0.003420	-0.002508	-0.001022									
17053	449240	-0.060193	0.217929	-9.832254	-0.005944	-0.001781	-0.003120									
17054	449265	-0.062774	0.186980	-9.798675	-0.002714	0.003499	-0.001827									
17055	449290	-0.054757	0.185623	-9.795843	-0.002284	-0.001901	0.001281	178.553268	0.376803	-50.798004						
17056	449315	-0.059163	0.208694	-9.819305	-0.001003	-0.000399	-0.002815									
17057	449340	-0.041266	0.190336	-9.813166	-0.001754	0.007319	-0.004560									
17058	449365	-0.098602	0.194412	-9.811443	-0.010873	-0.002888	0.002457									
17059	449390	-0.056687	0.169135	-9.833703	-0.005133	-0.000852	0.000849	178.554153	0.376043	-50.797077						
17060	449415	-0.038893	0.184715	-9.818934	-0.001213	-0.003891	-0.002635									
17061	449440	-0.064863	0.198633	-9.815452	-0.003907	-0.005606	-0.001486									
17062	449465	-0.062897	0.203443	-9.822643	-0.000057	-0.002135	-0.005765									
17063	449490	-0.072351	0.197630	-9.815886	-0.006296	0.001435	-0.004965	178.556076	0.377238	-50.795322						
17064	449515	-0.072759	0.190090	-9.820202	-0.005037	0.000048	-0.000615									
17065	449540	-0.044317	0.162358	-9.814104	-0.008261	-0.000381	0.006361									
17066	449565	-0.051641	0.219364	-9.822717	-0.007074	0.002599	0.003949									
17067	449590	-0.071746	0.193153	-9.832187	-0.008920	-0.000213	-0.000933	178.555450	0.376593	-50.795933						
17068	449615	-0.071349	0.187519	-9.806787	-0.003755	0.000142	-0.000177									
17069	449640	-0.061955	0.203942	-9.818348	-0.006974	0.000909	-0.000419									
17070	449665	-0.065397	0.179366	-9.829347	-0.004290	0.000376	-0.003944									
17071	449690	-0.072329	0.198723	-9.825477	-0.005603	0.000043	0.000659	178.556061	0.376078	-50.795490						
17072	449715	-0.086352	0.206006	-9.815825	-0.008053	-0.003487	-0.000437									
17073	449740	-0.038522	0.195993	-9.811270	-0.001980	0.002684	0.001366									
17074	449765	-0.068760	0.180610	-9.820215	-0.003494	0.003743	-0.004637									
17075	449790	-0.061543	0.179533	-9.832236	-0.008175	0.002438	-0.002453	178.556534	0.375013	-50.795094						
17076	449815	-0.029591	0.203341	-9.818504	-0.002885	-0.001335	-0.000569									
17077	449840	-0.066963	0.205857	-9.793876	-0.004154	-0.003293	0.000386									
17078	449865	-0.049419	0.191364	-9.839890	-0.006185	-0.001910	-0.002220									
17079	449890	-0.078379	0.206199	-9.818640	-0.006402	-0.002679	0.001754	178.557281	0.376016	-50.794876						
17080	449915	-0.057850	0.188028	-9.788056	-0.007041	-0.003077	0.000723									
17081	449940	-0.047977	0.174754	-9.812066	-0.006795	0.000975	-0.003162									
17082	449965	-0.071622	0.172854	-9.831116	-0.007069	0.002141	0.000621									
17083	449990	-0.062268	0.213565	-9.815367	-0.008556	-0.001432	0.000416	178.556625	0.375901	-50.794918						
17084	450015	-0.039764	0.175470	-9.825532	-0.004123	0.001670	-0.001889									
17085	450040	-0.049676	0.197886	-9.809195	-0.002359	0.002614	-0.000283									
17086	450065	-0.056960	0.202801	-9.794770	-0.003743	0.004068	0.000688									
17087	450090	-0.079357	0.208848	-9.800419	-0.008996	0.004424	-0.000513	178.557449	0.373761	-50.794949						
17088	450115	-0.055157	0.193615	-9.841278	-0.005646	0.001521	-0.000601									
17089	450140	-0.100011	0.202517	-9.842489	-0.004730	0.003086	0.002609									
17090	450165	-0.091967	0.223436	-9.805629	-0.005688	0.000681	-0.002518									
17091	450190	-0.071564	0.222510	-9.792303	-0.001699	0.001653	-0.001761	178.558456	0.372457	-50.794533						
17092	450215	-0.043517	0.193562	-9.801072	-0.000584	0.000574	-0.003564									
17093	450240	-0.060968	0.187465	-9.814879	-0.006174	0.002028	-0.000596									
17094	450265	-0.044685	0.180618	-9.822159	-0.003804	-0.002582	-0.002809									
17095	450290	-0.076046	0.211973	-9.822486	-0.002035	-0.002363	-0.006902	178.560226	0.372526	-50.793312						
17096	450315	-0.057170	0.191538	-9.830245	-0.006504	-0.002243	-0.004205									
17097	450340	-0.042253	0.186113	-9.836069	-0.007907	-0.000142	-0.004001									
17098	450365	-0.070178	0.199701	-9.819160	-0.003260	-0.001602	-0.002928									
17099	450390	-0.064880	0.220552	-9.783232	-0.001590	0.002493	-0.002971	178.561050	0.372471	-50.790833						
17100	450415	-0.066442	0.209728	-9.817257	-0.008135	0.003602	0.001083									
17101	450440	-0.076849	0.206792	-9.822479	-0.004826	0.001925	-0.000602									
17102	450465	-0.063089	0.203137	-9.817759	-0.005750	-0.003511	-0.001010									
17103	450490	-0.055544	0.208113	-9.801018	-0.001134	0.004041	-0.004442	178.561768	0.371304	-50.790726						
17104	450515	-0.069562	0.187167	-9.804295	-0.004035	0.002834	-0.003478									
17105	450540	-0.060559	0.191170	-9.803856	-0.012416	0.003658	-0.001147									
17106	450565	-0.065209	0.190592	-9.834523	-0.009961	0.000213	-0.002706									
17107	450590	-0.083796	0.214085	-9.808065	-0.005259	-0.004984	-0.001723	178.560806	0.370774	-50.789955						
17108	450615	-0.072508	0.189425	-9.798046	-0.008558	0.002691	0.000502									
17109	450640	-0.064457	0.199625	-9.810554	-0.004029	0.002903	-0.000660									
17110	450665	-0.080586	0.193276	-9.810469	-0.006175	-0.000033	-0.000291									
17111	450690	-0.063191	0.217012	-9.823502	-0.010322	0.002213	0.001532	178.560196	0.369339	-50.789520						
17112	450715	-0.047181	0.185646	-9.810641	-0.006367	-0.001904	0.001623									
17113	450740	-0.041544	0.186954	-9.796294	-0.006734	0.001304	-0.003223									
17114	450765	-0.061190	0.216250	-9.836931	-0.007725	0.002311	-0.004816									
17115	450790	-0.064671	0.219868	-9.829262	-0.005330	-0.003001	-0.006258	178.560028	0.369255	-50.789486						
17116	450815	-0.068087	0.192253	-9.823962	-0.008442	0.002752	-0.005198									
17117	450840	-0.055029	0.198651	-9.797181	-0.007589	-0.001739	-0.001773									
17118	450865	-0.072587	0.206495	-9.827293	-0.008294	-0.001885	-0.003043									
17119	450890	-0.075205	0.219536	-9.813852	-0.008281	0.002120	0.000055	178.558914	0.368795	-50.788033						
17120	450915	-0.057712	0.186885	-9.803398	-0.009730	0.001577	0.001204									
17121	450940	-0.063084	0.197230	-9.803852	-0.007468	0.000979	0.002094									
17122	450965	-0.067288	0.198437	-9.820616	-0.012445	-0.001894	-0.002840									
17123	450990	-0.056561	0.197226	-9.858526	-0.008719	-0.000538	-0.001241	178.556976	0.368462	-50.786579						
17124	451015	-0.076129	0.195602	-9.838772	-0.002293	0.004742	0.001007									
17125	451040	-0.090838	0.210305	-9.814737	-0.003283	-0.001094	-0.005801									
17126	451065	-0.099712	0.186251	-9.801270	-0.005540	-0.006278	-0.002174									
17127	451090	-0.064387	0.199447	-9.823497	-0.009161	-0.000542	-0.001760	178.557632	0.368630	-50.784683						
17128	451115	-0.072662	0.215100	-9.831138	-0.009675	-0.000615	-0.001559									
17129	451140	-0.064535	0.201028	-9.806726	-0.004593	-0.001688	-0.002415									
17130	451165	-0.064454	0.197804	-9.812953	-0.007769	0.000064	0.001000									
17131	451190	-0.060652	0.174618	-9.844128	-0.006333	0.000599	-0.003226	178.557144	0.368574	-50.785343						
17132	451215	-0.052947	0.186987	-9.807256	-0.007150	-0.001869	-0.005417									
17133	451240	-0.057695	0.191920	-9.826406	-0.006536	-0.003013	-0.002675									
17134	451265	-0.056314	0.208362	-9.847513	-0.003745	-0.004710	-0.005248									
17135	451290	-0.060105	0.193100	-9.811536	-0.006768	-0.001602	-0.003561	178.557236	0.369923	-50.782650						
17136	451315	-0.090036	0.195971	-9.839676	-0.003786	-0.003223	-0.002486									
17137	451340	-0.072063	0.200537	-9.818184	-0.001344	0.000891	0.000982									
17138	451365	-0.105602	0.213970	-9.820902	-0.000826	-0.001882	-0.003962									
17139	451390	-0.055480	0.202638	-9.812525	-0.004645	-0.002338	-0.004530	178.559280	0.370581	-50.780182						
17140	451415	-0.061651	0.191309	-9.788509	-0.007880	0.001216	-0.003476									
17141	451440	-0.034414	0.166597	-9.827956	-0.005417	0.000098	-0.002603									
17142	451465	-0.060215	0.163752	-9.817760	-0.004871	-0.001247	-0.003757									
17143	451490	-0.058772	0.204088	-9.815380	-0.005423	0.002225	-0.004508	178.559479	0.369988	-50.776749						
17144	451515	-0.060116	0.196990	-9.820171	-0.007138	-0.001723	0.002842									
17145	451540	-0.079613	0.208512	-9.841636	-0.005485	0.002292	-0.003541									
17146	451565	-0.063639	0.192172	-9.849862	-0.004657	0.004433	-0.002445									
17147	451590	-0.058607	0.198712	-9.840780	-0.000590	-0.001097	-0.000753	178.560471	0.369133	-50.778839						
17148	451615	-0.075868	0.188405	-9.797075	-0.005868	-0.001380	0.002587									
17149	451640	-0.041251	0.206479	-9.806363	-0.003052	0.001878	-0.006111									
17150	451665	-0.038760	0.205848	-9.824114	-0.004037	0.001033	-0.001504									
17151	451690	-0.047272	0.216642	-9.850420	-0.008340	0.002125	0.004016	178.560989	0.368302	-50.780170						
17152	451715	-0.084776	0.188503	-9.812366	-0.005491	0.004876	-0.001284									
17153	451740	-0.043557	0.207563	-9.815936	-0.002028	0.004230	-0.000979									
17154	451765	-0.047882	0.177920	-9.835092	-0.005355	-0.001763	-0.000815									
17155	451790	-0.051287	0.218120	-9.828846	-0.003031	-0.000568	-0.001641	178.562256	0.367031	-50.777531						
17156	451815	-0.081875	0.221853	-9.817674	-0.007494	-0.000970	-0.003235									
17157	451840	-0.062056	0.199345	-9.817759	-0.007159	0.000916	0.000043									
17158	451865	-0.065191	0.211303	-9.800970	-0.001170	-0.000988	-0.002483									
17159	451890	-0.049564	0.198838	-9.834111	-0.010322	-0.002240	-0.001892	178.562073	0.367216	-50.778542						
17160	451915	-0.059641	0.197599	-9.822088	-0.011823	-0.001234	-0.000538									
17161	451940	-0.082256	0.215748	-9.821012	-0.007130	0.000143	0.001767									
17162	451965	-0.031023	0.196440	-9.821263	-0.006106	0.001764	-0.000985									
17163	451990	-0.061726	0.189851	-9.848907	-0.006463	0.000994	-0.000027	178.561111	0.366659	-50.776814						
17164	452015	-0.034174	0.177302	-9.815494	-0.005175	0.000627	-0.000417									
17165	452040	-0.069141	0.190484	-9.805736	-0.004832	-0.000010	0.000668									
17166	452065	-0.070798	0.176969	-9.819141	-0.008367	0.002894	0.000888									
17167	452090	-0.059374	0.208332	-9.814898	-0.005652	-0.002284	0.001174	178.561218	0.366162	-50.777565						
17168	452115	-0.023371	0.195228	-9.831856	-0.002393	-0.002426	0.000069									
17169	452140	-0.074122	0.201326	-9.804766	-0.002673	-0.003979	-0.003582									
17170	452165	-0.045530	0.170957	-9.811120	-0.004371	0.000948	-0.007272									
17171	452190	-0.057964	0.190735	-9.842221	-0.004612	0.003217	-0.000785	178.562759	0.366209	-50.775410						
17172	452215	-0.041413	0.196503	-9.838474	-0.001144	0.000304	-0.003119									
17173	452240	-0.045921	0.174057	-9.826454	-0.006537	0.003108	-0.002129									
17174	452265	-0.059487	0.184838	-9.828307	-0.007693	-0.002912	-0.003308									
17175	452290	-0.059630	0.186407	-9.807220	-0.007287	-0.003609	-0.004338	178.563065	0.366386	-50.774212						
17176	452315	-0.043905	0.198301	-9.832232	-0.002782	-0.002629	-0.002293									
17177	452340	-0.061531	0.192001	-9.805295	-0.005187	0.001143	0.001058									
17178	452365	-0.042122	0.213005	-9.826005	-0.009808	0.001767	-0.002129									
17179	452390	-0.078829	0.199763	-9.798978	-0.005063	0.003138	-0.002447	178.563354	0.365602	-50.773113						
17180	452415	-0.049331	0.178254	-9.826921	-0.004616	0.003344	-0.001235									
17181	452440	-0.054124	0.211641	-9.814445	-0.002320	0.003311	-0.001816									
17182	452465	-0.059685	0.208171	-9.834543	-0.005928	0.001757	-0.007510									
17183	452490	-0.032998	0.193434	-9.812156	-0.005332	-0.002865	-0.004342	178.564316	0.364544	-50.770050						
17184	452515	-0.060202	0.204644	-9.820649	-0.005764	-0.001195	-0.003883									
17185	452540	-0.062999	0.197881	-9.822547	-0.000735	-0.002527	-0.001720									
17186	452565	-0.076338	0.201597	-9.821513	-0.005414	0.000371	0.001569									
17187	452590	-0.061381	0.181837	-9.820159	-0.009520	-0.003390	-0.001259	178.564789	0.365213	-50.769508						
17188	452615	-0.068597	0.189885	-9.824917	-0.006676	-0.002557	-0.001068									
17189	452640	-0.055114	0.213455	-9.806773	-0.005332	0.001389	-0.003678									
17190	452665	-0.062756	0.209463	-9.803379	-0.000307	-0.000273	-0.007026									
17191	452690	-0.087944	0.215816	-9.831056	-0.004330	-0.003999	-0.000121	178.565964	0.365718	-50.767750						
17192	452715	-0.074393	0.199733	-9.824406	-0.004278	0.000706	0.000289									
17193	452740	-0.068932	0.216397	-9.824447	-0.003980	-0.002700	0.002319									
17194	452765	-0.073805	0.221919	-9.820102	-0.001447	-0.004408	-0.003265									
17195	452790	-0.076100	0.228398	-9.835424	-0.006768	0.002596	-0.002061	178.567154	0.365960	-50.768490						
17196	452815	-0.055991	0.205397	-9.812033	-0.000717	-0.001104	-0.001712									
17197	452840	-0.069857	0.197431	-9.791836	-0.006956	-0.004053	-0.004660									
17198	452865	-0.069367	0.208544	-9.807174	-0.003621	0.002003	-0.000602									
17199	452890	-0.057334	0.199709	-9.809629	-0.003330	0.002715	-0.003351	178.568619	0.365747	-50.767822						
17200	452915	-0.042035	0.189410	-9.806356	-0.004311	-0.002655	-0.003769									
17201	452940	-0.083421	0.198100	-9.817170	-0.003545	0.003944	0.000116									
17202	452965	-0.063847	0.225238	-9.805287	-0.009149	0.003457	0.000894									
17203	452990	-0.052062	0.189751	-9.801987	-0.007293	-0.001286	-0.002405	178.568680	0.364956	-50.767002						
17204	453015	-0.064094	0.212175	-9.822057	-0.003864	0.000079	0.005527									
17205	453040	-0.036670	0.176553	-9.800625	-0.001363	-0.000528	0.000589									
17206	453065	-0.049396	0.171769	-9.809666	-0.002711	-0.002494	-0.001208									
17207	453090	-0.051561	0.173266	-9.842251	-0.005391	0.000934	-0.004573	178.570328	0.364927	-50.765575						
17208	453115	-0.069896	0.186185	-9.832088	-0.007437	0.001553	0.000876									
17209	453140	-0.053742	0.185212	-9.820197	-0.003770	0.000648	-0.001958									
17210	453165	-0.049248	0.196997	-9.811112	-0.005527	-0.002939	-0.005171									
17211	453190	-0.040648	0.195791	-9.815462	-0.008574	-0.003044	-0.000425	178.570251	0.365180	-50.766193						
17212	453215	-0.061486	0.196086	-9.822557	-0.004801	0.001024	0.001505									
17213	453240	-0.039054	0.189251	-9.825068	-0.003394	-0.001219	-0.001200									
17214	453265	-0.042552	0.203392	-9.818819	-0.006707	0.000530	-0.002916									
17215	453290	-0.039506	0.187343	-9.825061	-0.003892	-0.001872	-0.002930	178.571106	0.365108	-50.767426						
17216	453315	-0.043360	0.192044	-9.825521	-0.001615	-0.000858	-0.000116									
17217	453340	-0.041484	0.192340	-9.810184	-0.004008	0.003791	-0.006615									
17218	453365	-0.060666	0.196873	-9.809616	-0.006533	-0.001344	-0.005673									
17219	453390	-0.066656	0.186426	-9.815332	-0.006326	0.000739	-0.000350	178.572021	0.364503	-50.764320						
17220	453415	-0.049635	0.169029	-9.841784	-0.007617	-0.001028	-0.001122									
17221	453440	-0.059084	0.194325	-9.830716	-0.005394	-0.002407	0.002451									
17222	453465	-0.052357	0.224501	-9.814458	-0.002933	0.000331	-0.004332									
17223	453490	-0.051142	0.194641	-9.810622	-0.009058	-0.003950	0.000466	178.571976	0.365205	-50.763447						
17224	453515	-0.049882	0.183584	-9.830274	-0.008789	-0.000213	0.000420									
17225	453540	-0.073112	0.201011	-9.812909	-0.009270	-0.005573	-0.003189									
17226	453565	-0.050437	0.194087	-9.837469	-0.006168	-0.000234	-0.000226									
17227	453590	-0.037189	0.191291	-9.826024	-0.010014	-0.001977	-0.000867	178.570618	0.366048	-50.762081						
17228	453615	-0.023107	0.173237	-9.816505	-0.008821	0.000814	-0.000413									
17229	453640	-0.045314	0.201681	-9.833659	-0.008120	0.000699	-0.002840									
17230	453665	-0.050772	0.211954	-9.828368	-0.003625	-0.003530	0.004105									
17231	453690	-0.079337	0.201748	-9.804257	-0.006488	-0.002106	0.000472	178.570282	0.366318	-50.762756						
17232	453715	-0.045438	0.185243	-9.784762	-0.003789	-0.000569	0.001498									
17233	453740	-0.056821	0.187822	-9.804840	-0.006884	-0.006242	-0.002944									
17234	453765	-0.083264	0.189744	-9.831539	-0.004810	0.003339	-0.001170									
17235	453790	-0.064967	0.181732	-9.848413	-0.006205	0.002795	-0.001810	178.570724	0.366113	-50.761139						
17236	453815	-0.070348	0.210839	-9.803813	-0.002451	0.003177	-0.004894									
17237	453840	-0.061709	0.200965	-9.802423	-0.003771	0.000320	-0.003619									
17238	453865	-0.055379	0.199386	-9.816830	-0.004235	0.001021	-0.003748									
17239	453890	-0.040497	0.183294	-9.808289	-0.004038	-0.001024	0.000212	178.572205	0.365342	-50.761349						
17240	453915	-0.056638	0.216297	-9.807728	-0.001901	-0.000425	-0.005621									
17241	453940	-0.067936	0.202747	-9.798082	-0.007634	0.001545	-0.001872									
17242	453965	-0.038902	0.180813	-9.829375	-0.005177	-0.001375	-0.000939									
17243	453990	-0.084153	0.211744	-9.813337	-0.004081	0.000578	0.000611	178.573044	0.365007	-50.761017						
17244	454015	-0.048176	0.193692	-9.810159	-0.007088	0.002587	-0.002962									
17245	454040	-0.071236	0.207629	-9.808601	-0.008388	0.002941	-0.006603									
17246	454065	-0.064570	0.202854	-9.801928	-0.005925	0.002223	-0.001875									
17247	454090	-0.065517	0.210152	-9.814874	-0.006936	-0.000045	0.002466	178.572540	0.363618	-50.759045						
17248	454115	-0.062424	0.192178	-9.816788	-0.005132	0.003397	-0.000849									
17249	454140	-0.093576	0.207980	-9.820000	-0.005649	0.001585	-0.000277									
17250	454165	-0.067474	0.182274	-9.824918	-0.005957	0.003122	-0.001487									
17251	454190	-0.095734	0.221752	-9.820469	-0.006230	-0.004286	0.001875	178.572784	0.362757	-50.758617						
17252	454215	-0.077495	0.210949	-9.819125	0.000149	-0.004047	0.001849									
17253	454240	-0.087356	0.209330	-9.840162	-0.006494	-0.004303	-0.001907									
17254	454265	-0.051046	0.190024	-9.821166	-0.007176	-0.006229	0.007428									
17255	454290	-0.036405	0.201908	-9.812615	-0.004034	0.001031	0.000928	178.573807	0.364354	-50.760651						
17256	454315	-0.068141	0.200608	-9.847925	-0.000845	-0.005105	-0.000650									
17257	454340	-0.057789	0.205617	-9.825927	-0.000216	-0.000574	-0.000948									
17258	454365	-0.044086	0.209404	-9.813051	-0.004146	0.000978	0.005922									
17259	454390	-0.047703	0.183683	-9.805371	-0.008711	-0.002731	-0.000809	178.575333	0.365090	-50.760136						
17260	454415	-0.077631	0.213552	-9.796598	-0.005670	-0.002363	-0.006194									
17261	454440	-0.071498	0.199782	-9.823951	-0.005326	0.001399	-0.001629									
17262	454465	-0.077964	0.213381	-9.817203	-0.007597	0.000653	0.001135									
17263	454490	-0.110092	0.215860	-9.792593	-0.003278	-0.002961	-0.003061	178.575760	0.365279	-50.759087						
17264	454515	-0.044435	0.189785	-9.804428	-0.000890	-0.001681	-0.000308									
17265	454540	-0.071541	0.206586	-9.837370	-0.001587	-0.000030	-0.006066									
17266	454565	-0.075307	0.189751	-9.821049	-0.006562	-0.002438	-0.004138									
17267	454590	-0.063199	0.201290	-9.788032	-0.008495	0.000562	-0.003676	178.576782	0.365527	-50.755665						
17268	454615	-0.040174	0.199917	-9.804913	-0.008136	0.003408	-0.001101									
17269	454640	-0.041729	0.177329	-9.821686	-0.007512	0.001743	-0.001429									
17270	454665	-0.077412	0.213081	-9.829184	-0.006299	-0.002104	0.000598									
17271	454690	-0.060465	0.192365	-9.829275	-0.003296	-0.002439	-0.002871	178.576721	0.365144	-50.755547						
17272	454715	-0.041668	0.198853	-9.799639	-0.006592	0.001051	-0.000983									
17273	454740	-0.047716	0.200148	-9.826459	-0.009020	0.001335	0.000626									
17274	454765	-0.048368	0.212843	-9.825020	-0.001954	-0.000221	0.000462									
17275	454790	-0.079992	0.193145	-9.829161	-0.007167	0.002903	-0.004238	178.576706	0.364120	-50.755936						
17276	454815	-0.060078	0.186850	-9.805778	-0.005910	-0.000550	-0.002341									
17277	454840	-0.062701	0.172700	-9.813908	-0.006889	0.000405	-0.000986									
17278	454865	-0.061269	0.223981	-9.847013	-0.005499	-0.001056	0.001246									
17279	454890	-0.061293	0.204830	-9.804824	-0.006501	-0.001784	0.001176	178.576691	0.364238	-50.756390						
17280	454915	-0.075021	0.197053	-9.806189	-0.004095	-0.005020	0.002627									
17281	454940	-0.047823	0.201656	-9.803925	-0.004470	0.004563	-0.002059									
17282	454965	-0.065546	0.202892	-9.807680	-0.004323	-0.002527	-0.004080									
17283	454990	-0.059197	0.197062	-9.823051	-0.005947	-0.003517	-0.001074	178.577530	0.364870	-50.755047						
17284	455015	-0.067984	0.220236	-9.825878	-0.003040	-0.000173	-0.000943									
17285	455040	-0.032789	0.173431	-9.807830	-0.003614	-0.002183	-0.000632									
17286	455065	-0.039482	0.186382	-9.827457	-0.002834	-0.000493	0.000660									
17287	455090	-0.027879	0.222424	-9.844774	0.000133	0.001043	0.004308	178.579727	0.364805	-50.757168						
17288	455115	-0.051252	0.217050	-9.821651	-0.004087	0.004902	0.001717									
17289	455140	-0.055314	0.222250	-9.791913	-0.007395	0.004782	0.002176									
17290	455165	-0.073070	0.212744	-9.837840	-0.002068	-0.002673	-0.001082									
17291	455190	-0.059358	0.208753	-9.812984	-0.005840	-0.000614	-0.001702	178.580475	0.363571	-50.757767						
17292	455215	-0.072120	0.205566	-9.827775	-0.010975	-0.001858	-0.000027									
17293	455240	-0.068343	0.208330	-9.822527	-0.005117	0.000751	-0.001629									
17294	455265	-0.060056	0.179170	-9.800984	-0.005284	-0.005814	0.003456									
17295	455290	-0.044642	0.185983	-9.827425	-0.010362	0.003439	0.001727	178.579453	0.363741	-50.757454						
17296	455315	-0.049627	0.210421	-9.847541	-0.008214	-0.000407	-0.003424									
17297	455340	-0.041410	0.193203	-9.835127	-0.006826	-0.000255	-0.005600									
17298	455365	-0.058653	0.200374	-9.823041	-0.002719	0.003830	-0.001876									
17299	455390	-0.043111	0.176544	-9.829833	-0.009030	0.000872	-0.005014	178.579147	0.362907	-50.756180						
17300	455415	-0.058458	0.185829	-9.830232	-0.008507	0.000885	-0.002521									
17301	455440	-0.040364	0.178452	-9.831771	-0.006643	-0.005983	-0.004032									
17302	455465	-0.056457	0.199619	-9.801969	-0.005744	-0.002038	-0.006256									
17303	455490	-0.047791	0.188276	-9.799133	-0.002557	-0.001851	-0.004788	178.579346	0.363941	-50.753273						
17304	455515	-0.052364	0.181645	-9.798624	-0.008263	0.003408	-0.001995									
17305	455540	-0.063271	0.190975	-9.827334	-0.011721	0.003664	-0.003518									
17306	455565	-0.039026	0.186385	-9.821716	-0.005645	-0.000611	0.000027									
17307	455590	-0.058547	0.184437	-9.807228	-0.001808	0.003321	-0.002269	178.578949	0.362254	-50.752514						
17308	455615	-0.084000	0.204750	-9.813811	-0.010540	0.004718	-0.003065									
17309	455640	-0.074238	0.180134	-9.813860	-0.005670	0.000429	0.001764									
17310	455665	-0.044570	0.173508	-9.818800	-0.011347	0.000072	0.001259									
17311	455690	-0.056215	0.185622	-9.815868	-0.005858	-0.002027	0.000466	178.577682	0.361478	-50.751595						
17312	455715	-0.056941	0.210393	-9.824499	-0.004390	-0.001749	0.000466									
17313	455740	-0.044035	0.195539	-9.802983	-0.004141	-0.001875	-0.001521									
17314	455765	-0.062080	0.208462	-9.824475	-0.006844	0.000918	-0.001562									
17315	455790	-0.066212	0.227195	-9.813425	-0.006346	0.003307	-0.001742	178.578110	0.361095	-50.752823						
17316	455815	-0.064782	0.183915	-9.808157	-0.003108	0.000285	0.002910									
17317	455840	-0.064509	0.208010	-9.831182	-0.005406	-0.002351	-0.002095									
17318	455865	-0.080934	0.222454	-9.826300	-0.003552	-0.006434	0.000058									
17319	455890	-0.041933	0.183753	-9.809223	-0.004506	-0.002265	0.000848	178.579254	0.362317	-50.754528						
17320	455915	-0.056376	0.194447	-9.801963	-0.007018	0.000201	-0.001758									
17321	455940	-0.049734	0.173083	-9.829322	-0.005236	0.000498	0.000092									
17322	455965	-0.084899	0.209295	-9.833941	-0.008970	0.005715	-0.002103									
17323	455990	-0.068858	0.221022	-9.844574	-0.005911	-0.000748	-0.004321	178.578903	0.361216	-50.750362						
17324	456015	-0.055538	0.206058	-9.816833	-0.008689	-0.003561	-0.001325									
17325	456040	-0.069584	0.195141	-9.827783	-0.006871	-0.002436	-0.001897									
17326	456065	-0.052360	0.186646	-9.817329	-0.007541	0.000644	-0.002334									
17327	456090	-0.051774	0.188300	-9.836017	-0.003292	0.001685	-0.001697	178.578659	0.361450	-50.748241						
17328	456115	-0.069452	0.186607	-9.832105	-0.005926	0.000221	-0.000347									
17329	456140	-0.079129	0.228882	-9.808573	-0.005390	0.001192	-0.005279									
17330	456165	-0.049524	0.187636	-9.818295	-0.006349	0.001308	-0.002266									
17331	456190	-0.059559	0.193211	-9.816805	-0.006169	0.002098	0.000300	178.578781	0.360480	-50.751614						
17332	456215	-0.069527	0.189713	-9.817234	-0.005004	0.003071	-0.003669									
17333	456240	-0.090236	0.193529	-9.804198	-0.002936	-0.004055	-0.006141									
17334	456265	-0.046575	0.180475	-9.813998	-0.003576	0.002912	-0.000088									
17335	456290	-0.044893	0.196721	-9.819772	-0.007634	-0.002778	-0.004527	178.579575	0.360334	-50.746956						
17336	456315	-0.057117	0.197358	-9.840313	-0.006123	0.000152	-0.003557									
17337	456340	-0.068385	0.209387	-9.823961	-0.009352	-0.003268	-0.007467									
17338	456365	-0.031555	0.169071	-9.830364	-0.007595	0.002846	0.002290									
17339	456390	-0.056109	0.219969	-9.826417	-0.007957	-0.002468	-0.004141	178.578674	0.360460	-50.746105						
17340	456415	-0.046141	0.200033	-9.849957	-0.006545	-0.000498	-0.002342									
17341	456440	-0.064939	0.210960	-9.839318	-0.003459	0.000978	-0.000288									
17342	456465	-0.052017	0.198141	-9.820683	-0.008908	-0.000671	-0.003298									
17343	456490	-0.077417	0.198825	-9.798035	-0.004935	-0.000654	0.002585	178.578781	0.360275	-50.743031						
17344	456515	-0.067022	0.221731	-9.826853	-0.008114	0.002632	-0.003466									
17345	456540	-0.056945	0.205431	-9.810596	-0.003827	0.000127	-0.003560									
17346	456565	-0.082778	0.203252	-9.785061	-0.002733	0.000086	-0.003047									
17347	456590	-0.079290	0.199640	-9.819111	-0.006792	-0.002822	-0.000039	178.579239	0.359992	-50.740841						
17348	456615	-0.048903	0.206513	-9.812084	-0.004926	-0.005631	-0.004739									
17349	456640	-0.054338	0.199092	-9.830257	-0.005125	0.000742	-0.004964									
17350	456665	-0.053109	0.197757	-9.797666	-0.006852	-0.001152	-0.004779									
17351	456690	-0.077157	0.221734	-9.813375	0.001031	-0.001653	0.000203	178.580505	0.360833	-50.739571						
17352	456715	-0.055482	0.206951	-9.816835	-0.003798	-0.000377	0.002068									
17353	456740	-0.064120	0.203695	-9.793301	-0.008582	0.003730	0.001790									
17354	456765	-0.053155	0.185614	-9.844169	-0.006305	-0.000371	-0.004068									
17355	456790	-0.058598	0.197217	-9.834550	-0.003290	-0.000505	-0.000559	178.580872	0.360167	-50.739819						
17356	456815	-0.066431	0.191674	-9.788494	-0.003085	-0.001013	-0.001644									
17357	456840	-0.061678	0.198124	-9.801468	-0.004804	-0.001116	-0.003627									
17358	456865	-0.078453	0.212359	-9.815283	-0.007090	-0.001870	-0.006630									
17359	456890	-0.054507	0.202694	-9.813967	-0.007179	-0.000836	-0.003876	178.581223	0.360603	-50.738346						
17360	456915	-0.068456	0.213962	-9.814854	-0.008243	0.000566	-0.003414									
17361	456940	-0.074160	0.198249	-9.789893	-0.005271	-0.000477	-0.001121									
17362	456965	-0.062121	0.210824	-9.822556	-0.006412	0.001240	-0.003102									
17363	456990	-0.062885	0.195224	-9.828773	-0.005630	0.000677	-0.002524	178.581100	0.360039	-50.737934						
17364	457015	-0.081447	0.197457	-9.834907	-0.005768	0.001328	-0.000469									
17365	457040	-0.054342	0.195619	-9.817311	-0.007142	0.002199	-0.002068									
17366	457065	-0.088117	0.229160	-9.833461	-0.008908	-0.004922	-0.002544									
17367	457090	-0.071262	0.207677	-9.813879	-0.003965	-0.000966	0.001498	178.580933	0.360075	-50.735001						
17368	457115	-0.077374	0.208609	-9.818637	-0.002353	0.002809	0.002533									
17369	457140	-0.026592	0.219711	-9.819380	-0.005440	-0.001453	-0.004464									
17370	457165	-0.059643	0.203642	-9.817288	-0.005460	0.005713	-0.000067									
17371	457190	-0.051299	0.180794	-9.838900	-0.005831	-0.002603	0.002648	178.581711	0.359125	-50.738548						
17372	457215	-0.059190	0.193567	-9.812013	-0.005400	-0.000742	-0.004710									
17373	457240	-0.053963	0.185309	-9.794793	-0.004317	-0.002322	0.000334									
17374	457265	-0.047970	0.199030	-9.788593	-0.004573	-0.002201	-0.000240									
17375	457290	-0.085696	0.224832	-9.827234	-0.007212	-0.001734	-0.002594	178.582153	0.359840	-50.736977						
17376	457315	-0.079278	0.195976	-9.801851	-0.001569	-0.002542	-0.002743									
17377	457340	-0.062414	0.189410	-9.821114	-0.007214	-0.001539	0.000155									
17378	457365	-0.056321	0.195477	-9.810599	-0.006004	0.000477	-0.001250									
17379	457390	-0.061165	0.197381	-9.816800	-0.001509	-0.006665	-0.004303	178.583344	0.361023	-50.732269						
17380	457415	-0.077918	0.209044	-9.814323	-0.008211	-0.000334	-0.000222									
17381	457440	-0.051483	0.197570	-9.820204	-0.003338	0.003102	-0.002649									
17382	457465	-0.044292	0.211629	-9.799160	-0.007193	-0.004318	-0.001846									
17383	457490	-0.067762	0.191958	-9.804305	-0.007351	0.000845	-0.000918	178.583130	0.360831	-50.730690						
17384	457515	-0.086441	0.212098	-9.839211	-0.001527	-0.003897	-0.003195									
17385	457540	-0.046251	0.196259	-9.825510	0.000294	-0.000827	-0.003320									
17386	457565	-0.070285	0.187321	-9.845510	-0.008808	0.002496	-0.001484									
17387	457590	-0.048082	0.194930	-9.830766	-0.003812	0.002399	0.003047	178.584671	0.360513	-50.730732						
17388	457615	-0.067990	0.190056	-9.834023	-0.009960	0.002870	0.003451									
17389	457640	-0.063032	0.203164	-9.821590	-0.004694	-0.000463	-0.001703									
17390	457665	-0.049934	0.218928	-9.816869	-0.007540	-0.001287	-0.001764									
17391	457690	-0.064304	0.186511	-9.822051	-0.003006	-0.001532	-0.001580	178.584579	0.360265	-50.729576						
17392	457715	-0.056010	0.208807	-9.812037	-0.004868	-0.000922	-0.001967									
17393	457740	-0.058263	0.192527	-9.804347	-0.006987	-0.001094	-0.005221									
17394	457765	-0.048041	0.187675	-9.824066	-0.002098	0.000235	0.001298									
17395	457790	-0.058275	0.201186	-9.812019	-0.004965	0.002043	-0.003098	178.585373	0.359953	-50.731876						
17396	457815	-0.071437	0.185231	-9.805714	-0.002821	0.002919	-0.002648									
17397	457840	-0.076057	0.210522	-9.816250	-0.005795	-0.000229	-0.002910									
17398	457865	-0.058877	0.209844	-9.820647	-0.007525	-0.002068	-0.003755									
17399	457890	-0.087887	0.215971	-9.839680	-0.007568	-0.001043	-0.006819	178.585510	0.359758	-50.728848						
17400	457915	-0.051428	0.189932	-9.817808	-0.001746	0.001594	0.002143									
17401	457940	-0.059072	0.194190	-9.825450	-0.000629	0.002509	0.000352									
17402	457965	-0.082978	0.204921	-9.831553	-0.001991	0.002865	-0.003354									
17403	457990	-0.068351	0.201498	-9.811017	-0.004548	-0.000845	0.001626	178.587753	0.358566	-50.728088						
17404	458015	-0.035886	0.194227	-9.801113	-0.011420	-0.002065	-0.002596									
17405	458040	-0.055488	0.198288	-9.801495	-0.011007	-0.000572	0.000554									
17406	458065	-0.048796	0.201130	-9.801522	-0.005853	0.003828	-0.004429									
17407	458090	-0.082355	0.215035	-9.809993	-0.002418	-0.003837	-0.000507	178.586868	0.358662	-50.728336						
17408	458115	-0.067907	0.219419	-9.834984	-0.004923	0.000958	0.000675									
17409	458140	-0.070167	0.208512	-9.836415	-0.004010	-0.002131	-0.003318									
17410	458165	-0.064262	0.197278	-9.838833	-0.008905	0.001596	0.000499									
17411	458190	-0.050647	0.202503	-9.832679	-0.002031	-0.004154	-0.000960	178.587540	0.358897	-50.728363						
17412	458215	-0.052871	0.188595	-9.826904	0.000468	-0.004372	-0.003022									
17413	458240	-0.071544	0.226500	-9.803811	-0.003962	-0.001082	0.003991									
17414	458265	-0.057786	0.194984	-9.809628	-0.006755	0.000472	0.002539									
17415	458290	-0.080676	0.210248	-9.833488	-0.005534	-0.000224	-0.002277	178.588776	0.359328	-50.729370						
17416	458315	-0.058399	0.221102	-9.841754	-0.007710	0.000067	-0.000216									
17417	458340	-0.072175	0.204889	-9.816278	-0.007898	-0.003731	0.004692									
17418	458365	-0.059710	0.202611	-9.816807	-0.001816	0.001521	-0.000226									
17419	458390	-0.059207	0.198883	-9.819213	-0.004654	-0.001948	-0.003120	178.589142	0.359597	-50.727695						
17420	458415	-0.065952	0.199747	-9.814867	-0.007305	-0.002892	-0.000679									
17421	458440	-0.073292	0.212733	-9.801889	-0.009383	-0.001314	0.001380									
17422	458465	-0.064959	0.201343	-9.825416	-0.009453	-0.004102	-0.005358									
17423	458490	-0.068870	0.211278	-9.826840	-0.007464	-0.004128	-0.004338	178.587845	0.361100	-50.726460						
17424	458515	-0.041959	0.204889	-9.852858	-0.008145	-0.004321	0.002959									
17425	458540	-0.049591	0.194345	-9.823092	-0.005993	-0.001714	0.000404									
17426	458565	-0.053078	0.201897	-9.818764	-0.010331	-0.001325	0.004777									
17427	458590	-0.027299	0.202760	-9.826554	-0.008395	-0.002855	-0.003248	178.586624	0.362237	-50.727909						
17428	458615	-0.040470	0.188319	-9.826487	-0.000893	-0.003812	-0.001353									
17429	458640	-0.052560	0.212215	-9.841293	-0.010854	0.000262	-0.002193									
17430	458665	-0.065510	0.211522	-9.813904	-0.002071	0.003512	-0.002715									
17431	458690	-0.038000	0.176726	-9.812599	-0.000413	-0.000125	0.002956	178.588104	0.361962	-50.728088						
17432	458715	-0.036078	0.180214	-9.820281	-0.003625	0.000067	-0.002606									
17433	458740	-0.051526	0.191769	-9.813974	-0.003307	-0.000319	-0.004587									
17434	458765	-0.048144	0.188514	-9.813503	-0.004713	-0.002006	0.000526									
17435	458790	-0.070759	0.206724	-9.809561	-0.010130	0.001693	-0.003466	178.588501	0.361768	-50.726410						
17436	458815	-0.075773	0.221845	-9.807635	-0.009139	-0.001514	-0.003359									
17437	458840	-0.063685	0.219749	-9.821586	-0.004575	0.001854	-0.002974									
17438	458865	-0.072180	0.210199	-9.825371	-0.004058	0.001147	-0.005278									
17439	458890	-0.047761	0.198606	-9.818794	-0.007682	-0.000961	-0.000291	178.588364	0.361423	-50.723774						
17440	458915	-0.064652	0.212590	-9.816797	-0.008634	-0.002912	0.002776									
17441	458940	-0.070524	0.186295	-9.808609	-0.007106	0.001037	-0.002454									
17442	458965	-0.058171	0.204107	-9.847973	-0.003551	-0.002708	-0.004344									
17443	458990	-0.029499	0.188393	-9.824149	-0.002687	0.000931	0.000922	178.588730	0.361648	-50.725033						
17444	459015	-0.060169	0.193920	-9.805785	-0.003518	-0.001347	-0.002289									
17445	459040	-0.074887	0.197253	-9.819608	-0.002301	0.000741	0.000350									
17446	459065	-0.048148	0.192418	-9.821658	-0.002794	-0.000377	-0.005168									
17447	459090	-0.060665	0.168559	-9.823029	-0.004978	0.002696	-0.000471	178.590286	0.361120	-50.724373						
17448	459115	-0.076585	0.206395	-9.797083	-0.003694	-0.001271	0.004759									
17449	459140	-0.053873	0.190256	-9.807721	-0.005263	0.003590	-0.001232									
17450	459165	-0.063598	0.210782	-9.825908	-0.004202	0.000253	-0.000352									
17451	459190	-0.067320	0.202112	-9.818205	-0.005560	0.000478	-0.005348	178.591110	0.360379	-50.723640						
17452	459215	-0.066386	0.208477	-9.834032	-0.002594	-0.000170	-0.000681									
17453	459240	-0.051367	0.177068	-9.812060	-0.005125	-0.001183	-0.000682									
17454	459265	-0.066934	0.199625	-9.808144	-0.006920	-0.002827	-0.000623									
17455	459290	-0.055137	0.185883	-9.832170	-0.006318	0.000609	-0.000156	178.591629	0.360587	-50.723392						
17456	459315	-0.051122	0.169234	-9.826914	-0.007965	0.000060	-0.001182									
17457	459340	-0.045245	0.178294	-9.797698	-0.000915	0.001079	-0.003116									
17458	459365	-0.059336	0.202499	-9.809147	-0.002630	-0.003330	-0.003193									
17459	459390	-0.064050	0.216630	-9.836446	-0.002557	0.002933	0.000234	178.593109	0.360197	-50.722477						
17460	459415	-0.073838	0.190387	-9.831597	-0.005214	-0.006077	0.001985									
17461	459440	-0.070353	0.202375	-9.800457	-0.010702	-0.004634	-0.003242									
17462	459465	-0.097114	0.203416	-9.773480	-0.004067	0.003992	-0.003853									
17463	459490	-0.043729	0.181087	-9.823601	-0.003007	-0.001533	-0.002226	178.593323	0.361095	-50.721561						
17464	459515	-0.082515	0.224849	-9.796569	-0.004493	-0.000651	-0.001000									
17465	459540	-0.041792	0.176792	-9.818344	-0.004576	-0.000335	-0.001960									
17466	459565	-0.064091	0.197471	-9.790900	-0.006174	0.001433	-0.007004									
17467	459590	-0.073274	0.212710	-9.802362	-0.006087	0.000988	-0.004250	178.593781	0.360630	-50.720242						
17468	459615	-0.036155	0.185650	-9.831795	-0.007987	-0.005546	0.000967									
17469	459640	-0.058787	0.215892	-9.840317	-0.008887	-0.001317	-0.003551									
17470	459665	-0.036813	0.195274	-9.809730	-0.007416	-0.001021	0.000666									
17471	459690	-0.047837	0.207182	-9.821661	-0.008616	0.000364	-0.002202	178.592575	0.361413	-50.719730						
17472	459715	-0.025601	0.172148	-9.806916	-0.007704	-0.000457	-0.002532									
17473	459740	-0.069869	0.214297	-9.812930	-0.005092	0.000179	0.001310									
17474	459765	-0.041014	0.197925	-9.832725	-0.006872	-0.000441	-0.002144									
17475	459790	-0.055611	0.216059	-9.822109	-0.004315	-0.002648	-0.001393	178.592651	0.361601	-50.719189						
17476	459815	-0.042443	0.192938	-9.820250	-0.005259	-0.000668	-0.000106									
17477	459840	-0.054335	0.192791	-9.819226	-0.003384	0.002265	-0.002521									
17478	459865	-0.069958	0.204013	-9.852229	-0.004031	0.002891	0.000502									
17479	459890	-0.085193	0.221810	-9.817156	-0.006463	0.002965	-0.003192	178.593414	0.360241	-50.718056						
17480	459915	-0.060659	0.195305	-9.807217	-0.001186	-0.002354	-0.002727									
17481	459940	-0.067623	0.223341	-9.809587	-0.006424	0.001942	-0.001985									
17482	459965	-0.066727	0.197511	-9.829233	-0.004330	0.000298	-0.001679									
17483	459990	-0.059686	0.188631	-9.800510	-0.003444	-0.001812	-0.002079	178.594711	0.360237	-50.717228						
17484	460015	-0.064039	0.204562	-9.820631	-0.005285	0.000024	-0.000525									
17485	460040	-0.067156	0.191290	-9.822042	-0.010183	0.001885	0.004168									
17486	460065	-0.057698	0.193837	-9.827847	-0.007868	-0.003172	0.000231									
17487	460090	-0.059838	0.201137	-9.810575	-0.003684	-0.008067	0.001471	178.594345	0.361244	-50.717201						
17488	460115	-0.054395	0.189362	-9.808685	-0.008431	-0.001451	-0.000082									
17489	460140	-0.051709	0.200573	-9.799121	-0.004274	0.000232	-0.002706									
17490	460165	-0.076720	0.188718	-9.821992	0.000289	-0.005102	-0.005502									
17491	460190	-0.074021	0.211745	-9.832081	-0.006801	0.003543	-0.002678	178.595093	0.361371	-50.716503						
17492	460215	-0.073211	0.180348	-9.826799	-0.008088	-0.001948	0.003180									
17493	460240	-0.063137	0.196679	-9.801938	-0.004674	-0.005247	-0.001326									
17494	460265	-0.078072	0.184349	-9.812400	-0.005035	0.000419	-0.001106									
17495	460290	-0.078746	0.190846	-9.804734	-0.005245	-0.003256	-0.000225	178.595291	0.362497	-50.717529						
17496	460315	-0.061044	0.187768	-9.807697	-0.005156	-0.002091	0.000550									
17497	460340	-0.047398	0.205179	-9.819279	-0.003982	-0.002912	-0.000422									
17498	460365	-0.054374	0.193410	-9.826425	-0.006272	-0.003214	-0.001763									
17499	460390	-0.049045	0.192579	-9.832684	-0.003974	-0.002980	-0.000165	178.596008	0.363798	-50.716999						
17500	460415	-0.069431	0.172517	-9.807650	-0.005963	-0.000434	0.001973									
17501	460440	-0.057526	0.181704	-9.812980	-0.001672	0.003515	0.002553									
17502	460465	-0.064281	0.191304	-9.824453	-0.003502	0.002313	-0.000201									
17503	460490	-0.073095	0.200953	-9.808114	-0.006662	-0.000966	-0.003733	178.596970	0.362852	-50.716797						
17504	460515	-0.049112	0.190458	-9.818779	-0.004280	0.000165	-0.003411									
17505	460540	-0.082648	0.178014	-9.837779	-0.007242	-0.000714	-0.000587									
17506	460565	-0.081739	0.205762	-9.817178	-0.007840	-0.004211	-0.002590									
17507	460590	-0.087812	0.193486	-9.797009	-0.007196	0.002125	-0.002046	178.596664	0.362952	-50.716614						
17508	460615	-0.046662	0.191205	-9.831257	-0.007981	-0.001822	-0.000976									
17509	460640	-0.075586	0.211324	-9.800905	-0.012478	0.003640	-0.001325									
17510	460665	-0.074449	0.197668	-9.813383	-0.004902	0.000358	0.001206									
17511	460690	-0.071097	0.194872	-9.811481	-0.007807	0.001405	0.001538	178.595413	0.362130	-50.716778						
17512	460715	-0.065114	0.182416	-9.832129	-0.005153	-0.002028	0.001574									
17513	460740	-0.060817	0.181091	-9.830703	-0.010678	-0.001298	-0.001672									
17514	460765	-0.048771	0.197331	-9.802489	-0.003840	-0.001240	-0.003424									
17515	460790	-0.031876	0.189368	-9.826526	-0.005244	0.000995	0.000308	178.595337	0.362343	-50.715076						
17516	460815	-0.064588	0.198004	-9.796170	-0.003770	-0.003421	0.000668									
17517	460840	-0.072809	0.203454	-9.789428	-0.005321	-0.002545	0.001706									
17518	460865	-0.055903	0.208002	-9.820661	-0.006786	0.005153	-0.002353									
17519	460890	-0.045232	0.186262	-9.820238	-0.004734	-0.000925	0.001195	178.595886	0.362281	-50.715981						
17520	460915	-0.040602	0.186393	-9.788134	-0.010134	0.004199	-0.001454									
17521	460940	-0.077916	0.212486	-9.819116	-0.008811	0.000679	0.000316									
17522	460965	-0.060830	0.215014	-9.821127	-0.003989	-0.002335	0.000353									
17523	460990	-0.079950	0.186956	-9.831086	-0.005066	-0.002797	0.001954	178.595367	0.362006	-50.716995						
17524	461015	-0.062113	0.207628	-9.831186	-0.006622	-0.002126	-0.001113									
17525	461040	-0.066195	0.217477	-9.800480	-0.003576	0.000633	-0.002262									
17526	461065	-0.086911	0.213909	-9.833932	-0.000997	-0.000033	-0.001882									
17527	461090	-0.055408	0.212552	-9.841762	-0.004157	-0.000784	0.004071	178.596664	0.362031	-50.715599						
17528	461115	-0.083642	0.203215	-9.808549	-0.007291	-0.003497	-0.005597									
17529	461140	-0.055804	0.196704	-9.826413	-0.005925	-0.000052	-0.001295									
17530	461165	-0.082483	0.201081	-9.825799	-0.006256	0.002591	-0.000511									
17531	461190	-0.069582	0.191610	-9.815804	-0.005804	0.002471	-0.002047	178.596542	0.361540	-50.714142						
17532	461215	-0.044933	0.206102	-9.814003	-0.005622	0.004789	-0.002167									
17533	461240	-0.059345	0.191665	-9.777507	-0.007385	0.001265	-0.007556									
17534	461265	-0.059779	0.216512	-9.827352	-0.000173	0.004108	-0.002445									
17535	461290	-0.037257	0.194333	-9.815495	-0.002600	-0.001916	0.002205	178.597778	0.360088	-50.713306						
17536	461315	-0.067705	0.197827	-9.820122	-0.000995	0.003116	-0.009869									
17537	461340	-0.052972	0.197591	-9.816362	-0.010271	0.001995	-0.004475									
17538	461365	-0.055892	0.205699	-9.826420	-0.003800	0.001469	-0.001931									
17539	461390	-0.065875	0.213381	-9.845061	0.001608	0.000665	0.002149	178.599365	0.358794	-50.711891						
17540	461415	-0.080549	0.206605	-9.839715	-0.010087	0.002518	-0.002679									
17541	461440	-0.050135	0.231167	-9.811112	-0.005926	0.000399	0.000697									
17542	461465	-0.049678	0.196995	-9.811107	-0.005670	0.000143	-0.002259									
17543	461490	-0.065480	0.217025	-9.830693	-0.005288	0.004277	-0.003065	178.598999	0.357463	-50.712040						
17544	461515	-0.079251	0.205778	-9.820541	-0.006296	0.001551	-0.005123									
17545	461540	-0.063371	0.186545	-9.817274	-0.008525	-0.002414	0.001006									
17546	461565	-0.060855	0.208227	-9.810099	-0.004281	-0.005309	0.000273									
17547	461590	-0.044209	0.193302	-9.844213	-0.003824	-0.001886	-0.003874	178.599197	0.358336	-50.709831						
17548	461615	-0.043729	0.184499	-9.826949	-0.005044	0.000612	-0.000460									
17549	461640	-0.058675	0.196131	-9.824488	-0.005881	-0.003396	0.000225									
17550	461665	-0.078930	0.215843	-9.826782	-0.004973	-0.001714	-0.001304									
17551	461690	-0.064684	0.203685	-9.795221	-0.005788	-0.004368	-0.001957	178.599594	0.359314	-50.711323						
17552	461715	-0.060352	0.212119	-9.816816	-0.005271	-0.002490	-0.002205									
17553	461740	-0.060802	0.218556	-9.830721	-0.008170	-0.001635	-0.000978									
17554	461765	-0.073022	0.198633	-9.813867	-0.004666	0.000547	-0.003858									
17555	461790	-0.078048	0.214070	-9.803782	-0.003928	0.001070	-0.007500	178.599945	0.359417	-50.709209						
17556	461815	-0.062911	0.193191	-9.823983	-0.001475	-0.001328	-0.002080									
17557	461840	-0.065359	0.203301	-9.833082	-0.005884	0.000657	-0.002311									
17558	461865	-0.046778	0.170886	-9.838913	-0.002880	0.002709	-0.002445									
17559	461890	-0.097179	0.187465	-9.812297	-0.009882	0.001612	-0.006777	178.600555	0.358634	-50.706322						
17560	461915	-0.051095	0.192113	-9.798634	-0.011724	0.001653	-0.002168									
17561	461940	-0.044904	0.198155	-9.821210	-0.004113	-0.002988	-0.004070									
17562	461965	-0.046190	0.192469	-9.822145	-0.006308	0.002135	-0.001544									
17563	461990	-0.075463	0.195044	-9.801870	-0.000238	-0.002074	-0.000803	178.600845	0.358540	-50.704742						
17564	462015	-0.062861	0.215181	-9.799547	-0.007139	0.000185	-0.000839									
17565	462040	-0.043335	0.187276	-9.820726	-0.006236	-0.000510	-0.003280									
17566	462065	-0.065222	0.181594	-9.805269	-0.010547	0.001100	0.000450									
17567	462090	-0.066503	0.195987	-9.787054	-0.010292	0.000907	-0.001274	178.599442	0.358011	-50.704491						
17568	462115	-0.033797	0.179053	-9.802076	-0.008070	-0.000733	-0.002068									
17569	462140	-0.054573	0.210615	-9.808200	-0.002015	0.003956	-0.001413									
17570	462165	-0.044996	0.172003	-9.818320	-0.004919	0.002876	0.000639									
17571	462190	-0.063096	0.202095	-9.809603	-0.008990	-0.000110	-0.004491	178.599487	0.356874	-50.704231						
17572	462215	-0.072421	0.193132	-9.823455	-0.008550	-0.001711	-0.002581									
17573	462240	-0.063840	0.183989	-9.808161	-0.008589	-0.000611	-0.001098									
17574	462265	-0.076297	0.227105	-9.814818	-0.005320	-0.004996	0.000151									
17575	462290	-0.064210	0.186601	-9.823975	-0.007676	0.000881	-0.003469	178.598663	0.357517	-50.705711						
17576	462315	-0.049554	0.192120	-9.830764	-0.006638	-0.003602	0.000930									
17577	462340	-0.068080	0.188362	-9.820119	-0.005551	0.000535	-0.001684									
17578	462365	-0.058311	0.203490	-9.808186	-0.006039	0.004344	0.001611									
17579	462390	-0.085619	0.215770	-9.824353	-0.008795	-0.003774	0.001191	178.598282	0.357559	-50.704594						
17580	462415	-0.080209	0.198454	-9.806159	-0.006099	-0.000377	-0.002708									
17581	462440	-0.093174	0.211784	-9.817125	-0.008143	-0.000414	-0.003341									
17582	462465	-0.038255	0.159256	-9.813078	-0.009891	-0.000192	-0.004487									
17583	462490	-0.071999	0.190304	-9.822018	-0.008184	-0.005440	-0.001127	178.597153	0.358212	-50.701866						
17584	462515	-0.053099	0.182197	-9.839849	-0.004494	0.001335	-0.000526									
17585	462540	-0.074681	0.185967	-9.826319	-0.004160	0.000687	-0.003280									
17586	462565	-0.066045	0.203212	-9.799527	-0.001806	0.001119	-0.001617									
17587	462590	-0.067755	0.237246	-9.822534	-0.002019	-0.000501	-0.003865	178.598862	0.357565	-50.703053						
17588	462615	-0.059012	0.179119	-9.801954	-0.000577	0.002418	-0.006105									
17589	462640	-0.066380	0.170035	-9.831152	-0.005350	0.000286	0.000502									
17590	462665	-0.051707	0.205581	-9.813025	-0.009446	-0.001861	-0.003858									
17591	462690	-0.067602	0.222982	-9.821568	-0.001979	-0.001195	0.001895	178.599854	0.357334	-50.700241						
17592	462715	-0.074375	0.196406	-9.825359	-0.002538	-0.001985	0.001374									
17593	462740	-0.080856	0.227462	-9.843079	-0.004566	-0.002474	-0.001310									
17594	462765	-0.061426	0.182553	-9.806243	-0.005658	0.001828	-0.000453									
17595	462790	-0.075726	0.181466	-9.806659	-0.009239	0.001825	-0.002231	178.600204	0.357155	-50.700863						
17596	462815	-0.052808	0.192422	-9.826909	-0.002691	0.003237	0.000247									
17597	462840	-0.064954	0.168186	-9.829244	-0.006321	-0.001740	-0.003803									
17598	462865	-0.068620	0.192773	-9.825874	-0.010207	-0.001995	-0.003022									
17599	462890	-0.085422	0.206767	-9.826263	-0.006701	0.000587	0.001398	178.599976	0.356856	-50.700100						
17600	462915	-0.059802	0.236956	-9.794773	-0.007710	0.000183	0.001146									
17601	462940	-0.061186	0.209987	-9.831664	-0.006802	-0.000320	-0.000201									
17602	462965	-0.069212	0.192039	-9.810532	-0.007959	-0.004338	-0.000735									
17603	462990	-0.056233	0.184116	-9.808681	-0.007206	-0.001752	-0.001238	178.599197	0.357448	-50.699322						
17604	463015	-0.074723	0.222358	-9.814349	-0.005232	0.000611	-0.000396									
17605	463040	-0.067127	0.189396	-9.823486	-0.006139	0.001177	0.001597									
17606	463065	-0.070284	0.211181	-9.823486	-0.005627	-0.000742	0.003506									
17607	463090	-0.059789	0.201390	-9.797153	-0.005956	0.001834	0.006208	178.599396	0.356693	-50.700241						
17608	463115	-0.056130	0.175110	-9.813944	-0.005469	-0.001773	0.003564									
17609	463140	-0.078223	0.193774	-9.808556	-0.006276	-0.000694	0.002028									
17610	463165	-0.038874	0.177489	-9.825535	-0.009893	0.000072	-0.003846									
17611	463190	-0.070469	0.196050	-9.829693	-0.002642	0.003292	-0.003146	178.599396	0.356267	-50.700176						
17612	463215	-0.079340	0.202623	-9.798022	-0.007695	0.001527	-0.003012									
17613	463240	-0.048175	0.182449	-9.787133	-0.008000	0.003134	-0.002810									
17614	463265	-0.077399	0.196972	-9.798511	-0.008878	0.000477	-0.003585									
17615	463290	-0.056055	0.209364	-9.815873	-0.006680	-0.006385	-0.001201	178.598404	0.356179	-50.698349						
17616	463315	-0.048894	0.215247	-9.826944	-0.003736	-0.002462	0.000283									
17617	463340	-0.066279	0.195012	-9.818212	-0.005512	0.001051	-0.001995									
17618	463365	-0.068869	0.206849	-9.819169	-0.007384	-0.004001	0.002021									
17619	463390	-0.038145	0.192009	-9.818356	-0.004572	-0.000353	-0.003101	178.598862	0.356713	-50.699448						
17620	463415	-0.074085	0.206334	-9.819622	-0.007334	-0.002012	-0.001809									
17621	463440	-0.043899	0.188972	-9.811621	-0.003260	-0.001819	-0.006114									
17622	463465	-0.087777	0.199016	-9.818586	-0.005406	0.000094	0.000505									
17623	463490	-0.047291	0.198406	-9.808717	-0.004868	0.003392	-0.000063	178.599350	0.356485	-50.698040						
17624	463515	-0.046563	0.179573	-9.818314	-0.005174	0.000939	0.001654									
17625	463540	-0.056939	0.199514	-9.797161	-0.001657	0.002931	0.002109									
17626	463565	-0.077920	0.200286	-9.799941	-0.007626	-0.002395	0.001387									
17627	463590	-0.048614	0.188680	-9.825495	-0.006656	-0.003551	-0.005086	178.599823	0.356481	-50.699585						
17628	463615	-0.051423	0.192034	-9.833633	-0.000970	-0.001058	-0.000034									
17629	463640	-0.053391	0.227477	-9.822604	-0.004192	-0.004213	-0.000937									
17630	463665	-0.069788	0.205772	-9.811011	-0.005104	0.000216	-0.005271									
17631	463690	-0.070192	0.192202	-9.795180	-0.004701	0.001511	-0.005832	178.601151	0.356724	-50.694611						
17632	463715	-0.080489	0.224269	-9.817679	-0.007060	-0.002192	0.001515									
17633	463740	-0.079952	0.220949	-9.819588	-0.004388	0.000305	0.001138									
17634	463765	-0.090585	0.220006	-9.795089	-0.007035	-0.003289	-0.001371									
17635	463790	-0.038196	0.191536	-9.810202	-0.014934	0.000435	0.000267	178.599854	0.357098	-50.696003						
17636	463815	-0.068733	0.204971	-9.823477	-0.002064	0.003304	-0.000134									
17637	463840	-0.067903	0.204811	-9.814380	-0.002581	-0.002897	-0.003555									
17638	463865	-0.053879	0.167099	-9.846560	-0.003316	-0.001948	-0.004388									
17639	463890	-0.063888	0.189105	-9.805277	-0.005515	0.001113	-0.002322	178.601410	0.356893	-50.694237						
17640	463915	-0.037502	0.179782	-9.823160	-0.004478	-0.001578	-0.004770									
17641	463940	-0.064289	0.189484	-9.825900	-0.006817	-0.002126	-0.000729									
17642	463965	-0.070223	0.215099	-9.831138	-0.008628	0.002801	0.000069									
17643	463990	-0.053431	0.196202	-9.821637	-0.008823	-0.001007	-0.001550	178.600769	0.356891	-50.694107						
17644	464015	-0.079448	0.182141	-9.824379	-0.008351	-0.000420	-0.004743									
17645	464040	-0.084570	0.214862	-9.829638	-0.002640	-0.000829	-0.001374									
17646	464065	-0.072814	0.193726	-9.832560	-0.003839	0.002889	-0.001602									
17647	464090	-0.080334	0.197738	-9.790346	-0.006291	-0.001979	0.003308	178.601242	0.356654	-50.694206						
17648	464115	-0.067337	0.205999	-9.826839	-0.000463	-0.000790	0.000474									
17649	464140	-0.030163	0.198288	-9.820800	-0.001511	-0.002690	-0.005355									
17650	464165	-0.071031	0.197161	-9.837374	-0.005129	-0.004871	0.000085									
17651	464190	-0.057532	0.208124	-9.805799	0.000620	-0.002965	-0.001584	178.603790	0.357997	-50.694588						
17652	464215	-0.056061	0.212992	-9.810124	-0.001970	0.000407	-0.001757									
17653	464240	-0.083057	0.210293	-9.837309	-0.005665	0.000082	-0.000198									
17654	464265	-0.052440	0.203086	-9.842734	-0.002956	-0.000905	-0.002523									
17655	464290	-0.063661	0.206767	-9.804815	-0.011113	-0.001360	0.000951	178.604156	0.357964	-50.694622						
17656	464315	-0.050328	0.192736	-9.843705	-0.004315	0.003979	-0.000639									
17657	464340	-0.063056	0.207014	-9.824464	-0.006825	0.000454	0.001074									
17658	464365	-0.062132	0.208371	-9.815838	-0.008188	0.003333	0.002697									
17659	464390	-0.054735	0.186065	-9.814922	-0.004244	0.003652	0.000003	178.604263	0.356015	-50.693943						
17660	464415	-0.047449	0.181348	-9.839877	-0.007780	-0.003813	0.002339									
17661	464440	-0.080444	0.205681	-9.782187	-0.004056	-0.000466	-0.003161									
17662	464465	-0.042113	0.165770	-9.809693	-0.006178	0.002731	0.005379									
17663	464490	-0.075871	0.206565	-9.834949	-0.006761	0.000061	-0.002696	178.604172	0.355921	-50.694134						
17664	464515	-0.082672	0.192973	-9.852645	-0.006175	0.001946	-0.000711									
17665	464540	-0.053685	0.167774	-9.795740	-0.006784	0.001231	0.000253									
17666	464565	-0.053805	0.154919	-9.825449	-0.001965	0.002411	0.000311									
17667	464590	-0.055243	0.187613	-9.819706	-0.008054	-0.000857	0.002995	178.604370	0.354933	-50.694027						
17668	464615	-0.080839	0.222605	-9.834930	-0.005533	0.000088	0.000824									
17669	464640	-0.078093	0.221422	-9.818653	-0.003976	-0.002912	0.001055									
17670	464665	-0.045517	0.204632	-9.810659	-0.006004	-0.001732	-0.004506									
17671	464690	-0.077571	0.218006	-9.810491	-0.007634	0.001661	-0.000572	178.604538	0.355060	-50.695408						
17672	464715	-0.030852	0.172028	-9.810244	-0.003050	-0.002190	-0.000419									
17673	464740	-0.054047	0.210606	-9.836976	-0.002387	-0.003214	-0.004268									
17674	464765	-0.062331	0.181322	-9.820631	-0.005291	-0.003968	-0.001509									
17675	464790	-0.049742	0.198775	-9.806310	-0.002173	0.000858	0.001328	178.606155	0.355995	-50.694046						
17676	464815	-0.088342	0.215359	-9.833924	-0.002499	0.001115	0.000182									
17677	464840	-0.079491	0.195106	-9.835890	-0.005183	0.000928	-0.002062									
17678	464865	-0.057673	0.189782	-9.812496	-0.004674	0.001007	-0.001611									
17679	464890	-0.062502	0.202691	-9.821592	-0.003889	0.002433	-0.002314	178.607300	0.354929	-50.692413						
17680	464915	-0.058881	0.172710	-9.814404	-0.005053	0.001262	0.002748									
17681	464940	-0.057665	0.203093	-9.842709	-0.005908	0.001366	-0.003462									
17682	464965	-0.092210	0.213749	-9.826240	-0.005099	0.000615	0.002490									
17683	464990	-0.070907	0.210855	-9.796621	-0.009404	-0.000814	0.000948	178.607132	0.354272	-50.692947						
17684	465015	-0.059041	0.228993	-9.830729	-0.005741	-0.001788	-0.001238									
17685	465040	-0.052181	0.205513	-9.809181	-0.006418	-0.000381	-0.000021									
17686	465065	-0.075978	0.204261	-9.812901	-0.004469	-0.001441	-0.000796									
17687	465090	-0.075984	0.204233	-9.808585	-0.005975	-0.000240	-0.000718	178.607376	0.354533	-50.692177						
17688	465115	-0.050676	0.205631	-9.818771	-0.005874	0.000730	-0.000270									
17689	465140	-0.044387	0.186970	-9.804432	-0.003028	-0.002843	-0.002728									
17690	465165	-0.080137	0.208448	-9.837319	-0.008419	0.002491	-0.000632									
17691	465190	-0.069287	0.202648	-9.822037	-0.008145	-0.004075	0.003555	178.607193	0.354765	-50.693630						
17692	465215	-0.077858	0.242631	-9.812412	-0.003840	0.000893	0.000045									
17693	465240	-0.073223	0.208913	-9.805243	-0.002144	-0.000373	-0.002971									
17694	465265	-0.057523	0.186242	-9.828797	-0.004916	0.000553	-0.000723									
17695	465290	-0.051454	0.188589	-9.821644	-0.007020	-0.003347	0.002854	178.608093	0.354794	-50.692646						
17696	465315	-0.084263	0.218371	-9.813821	0.000574	-0.003609	-0.001651									
17697	465340	-0.035269	0.200936	-9.840903	-0.004466	0.000429	0.000878									
17698	465365	-0.082373	0.223341	-9.820539	-0.006707	-0.003745	-0.004767									
17699	465390	-0.048551	0.184774	-9.821177	-0.000235	-0.002068	-0.000235	178.610016	0.355803	-50.692085						
17700	465415	-0.096032	0.216530	-9.824787	-0.002593	0.000080	0.001517									
17701	465440	-0.053943	0.189206	-9.798617	-0.009125	0.000477	-0.001799									
17702	465465	-0.048230	0.205265	-9.825979	-0.002861	0.004061	-0.003716									
17703	465490	-0.052198	0.181125	-9.832666	-0.002825	0.001110	0.001644	178.611008	0.354694	-50.692497						
17704	465515	-0.055889	0.204156	-9.818743	-0.003816	0.001852	-0.003786									
17705	465540	-0.082246	0.175866	-9.822443	-0.005683	-0.001135	0.001584									
17706	465565	-0.088881	0.207354	-9.807560	-0.006616	0.002205	0.001603									
17707	465590	-0.072262	0.180847	-9.828255	-0.005856	-0.002050	-0.000858	178.611313	0.354276	-50.692818						
17708	465615	-0.073719	0.186624	-9.834477	-0.005418	-0.004040	-0.003174									
17709	465640	-0.053860	0.197193	-9.824505	-0.008100	0.004755	0.002004									
17710	465665	-0.069172	0.197271	-9.817241	-0.003022	0.001623	0.002293									
17711	465690	-0.064827	0.197997	-9.823491	-0.008614	0.002022	-0.006333	178.611191	0.353372	-50.691643						
17712	465715	-0.053802	0.194915	-9.834573	-0.005643	0.001112	-0.001611									
17713	465740	-0.056884	0.207037	-9.819217	-0.008520	0.001386	-0.002566									
17714	465765	-0.069395	0.208518	-9.802861	-0.007899	0.000115	-0.000395									
17715	465790	-0.075752	0.192634	-9.825841	-0.005037	-0.001906	-0.002973	178.610794	0.352999	-50.689274						
17716	465815	-0.075382	0.204274	-9.839739	-0.007412	-0.001626	-0.002897									
17717	465840	-0.072901	0.197458	-9.828726	-0.005834	0.001307	-0.002375									
17718	465865	-0.038883	0.175924	-9.820745	-0.005379	0.001125	-0.000648									
17719	465890	-0.073156	0.204130	-9.801887	-0.004977	0.002351	-0.002755	178.610886	0.352280	-50.687721						
17720	465915	-0.051513	0.193743	-9.820210	-0.001600	-0.003259	0.000277									
17721	465940	-0.065040	0.210854	-9.826864	-0.008841	-0.002420	0.001329									
17722	465965	-0.074550	0.205757	-9.816747	-0.002041	-0.001729	-0.003234									
17723	465990	-0.062969	0.192589	-9.815834	-0.003421	-0.000130	0.000687	178.612076	0.353068	-50.689449						
17724	466015	-0.038492	0.183243	-9.833221	-0.003189	-0.004205	-0.006129									
17725	466040	-0.100067	0.235641	-9.837231	-0.003929	-0.002861	-0.006688									
17726	466065	-0.068011	0.222711	-9.829725	-0.006758	-0.000398	-0.007309									
17727	466090	-0.059460	0.212378	-9.805791	-0.002232	-0.001794	-0.003551	178.613266	0.354178	-50.684601						
17728	466115	-0.051827	0.185133	-9.811572	-0.007792	0.007206	0.002271									
17729	466140	-0.070166	0.209387	-9.831629	-0.004481	0.000812	-0.003345									
17730	466165	-0.029414	0.187203	-9.835664	-0.004961	0.000034	0.000305									
17731	466190	-0.059394	0.205328	-9.802916	-0.007401	-0.001815	-0.002070	178.613190	0.352999	-50.684731						
17732	466215	-0.051614	0.192464	-9.795276	-0.004898	0.002098	0.000122									
17733	466240	-0.066709	0.203933	-9.841694	-0.009020	0.003183	0.000140									
17734	466265	-0.064068	0.203966	-9.808643	-0.009923	-0.000638	-0.001867									
17735	466290	-0.055927	0.199793	-9.808196	-0.008908	-0.000484	-0.000843	178.611969	0.352118	-50.686028						
17736	466315	-0.071067	0.195829	-9.815799	-0.003813	0.001983	-0.003143									
17737	466340	-0.075916	0.199598	-9.817211	-0.004120	-0.000602	-0.001237									
17738	466365	-0.068032	0.187162	-9.835451	-0.001386	-0.002554	-0.005294									
17739	466390	-0.057808	0.199960	-9.821140	-0.010881	-0.002977	-0.003281	178.612549	0.352461	-50.684292						
17740	466415	-0.057509	0.182385	-9.826880	-0.000998	0.000107	0.003049									
17741	466440	-0.080193	0.208755	-9.826298	-0.008324	0.001393	0.001022									
17742	466465	-0.031357	0.179804	-9.818867	-0.008026	-0.000413	-0.002253									
17743	466490	-0.063454	0.196935	-9.823018	0.000654	-0.004260	-0.003830	178.613632	0.352625	-50.681988						
17744	466515	-0.035803	0.156895	-9.813079	-0.006954	0.004445	-0.001396									
17745	466540	-0.057741	0.199932	-9.824012	-0.004160	0.000688	-0.002509									
17746	466565	-0.064353	0.198943	-9.825895	-0.003928	0.001797	-0.000526									
17747	466590	-0.076738	0.193598	-9.829666	-0.004709	-0.004414	-0.003624	178.614273	0.351998	-50.682747						
17748	466615	-0.065878	0.204273	-9.833087	-0.008826	-0.003009	-0.000665									
17749	466640	-0.056501	0.183129	-9.837916	-0.005810	-0.001724	-0.002654									
17750	466665	-0.089405	0.219504	-9.830093	-0.000183	0.000115	-0.001949									
17751	466690	-0.072936	0.220785	-9.799976	-0.007226	-0.001499	-0.004628	178.614578	0.352610	-50.679543						
17752	466715	-0.060568	0.199626	-9.836468	-0.006224	-0.004503	0.000411									
17753	466740	-0.057213	0.184166	-9.814903	-0.005580	-0.005011	-0.001962									
17754	466765	-0.077216	0.209831	-9.775977	-0.001428	-0.002608	0.000347									
17755	466790	-0.059183	0.161835	-9.816323	-0.003979	0.003339	-0.000449	178.615585	0.353581	-50.681690						
17756	466815	-0.059753	0.196312	-9.802909	-0.007713	-0.001943	0.000365									
17757	466840	-0.051969	0.187507	-9.811577	-0.006205	-0.000961	-0.000595									
17758	466865	-0.071366	0.195885	-9.784633	-0.010248	-0.006638	-0.000420									
17759	466890	-0.068775	0.191288	-9.792789	-0.009930	0.001821	0.000140	178.614166	0.354395	-50.682995						
17760	466915	-0.051911	0.199686	-9.836499	-0.003543	0.004198	0.004546									
17761	466940	-0.048404	0.174347	-9.816858	-0.006682	0.002006	-0.000769									
17762	466965	-0.063718	0.208115	-9.800011	-0.012171	-0.000618	-0.005639									
17763	466990	-0.061655	0.206343	-9.816324	0.000842	-0.001736	0.000857	178.614548	0.353552	-50.682758						
17764	467015	-0.056859	0.200103	-9.828808	-0.009404	-0.003207	-0.001045									
17765	467040	-0.069234	0.206565	-9.831150	-0.007501	-0.002530	-0.000791									
17766	467065	-0.038552	0.187750	-9.818832	-0.003946	0.000051	-0.002263									
17767	467090	-0.064933	0.209133	-9.835960	-0.008900	0.001252	-0.001022	178.613754	0.353909	-50.680695						
17768	467115	-0.066861	0.202689	-9.823008	-0.009352	-0.002502	-0.000915									
17769	467140	-0.061200	0.209340	-9.823034	-0.003539	-0.000787	-0.004509									
17770	467165	-0.069137	0.231403	-9.814857	-0.001696	0.001699	-0.001997									
17771	467190	-0.053725	0.191178	-9.839849	-0.003207	0.001292	0.001395	178.614670	0.353675	-50.677917						
17772	467215	-0.074858	0.198328	-9.826796	-0.002667	0.000007	-0.002067									
17773	467240	-0.062977	0.195041	-9.818707	-0.004251	-0.000605	-0.003476									
17774	467265	-0.060239	0.210354	-9.824960	-0.003299	-0.000067	-0.001240									
17775	467290	-0.056781	0.183889	-9.795256	-0.008887	-0.001459	-0.004305	178.615402	0.353723	-50.676895						
17776	467315	-0.064987	0.206836	-9.815351	-0.005193	0.003381	0.000900									
17777	467340	-0.068399	0.205139	-9.806222	-0.000387	0.000888	-0.000727									
17778	467365	-0.047439	0.188164	-9.849938	-0.006220	-0.000896	-0.003290									
17779	467390	-0.052650	0.208994	-9.817799	-0.009805	0.001687	-0.001848	178.615768	0.352722	-50.676487						
17780	467415	-0.067453	0.209476	-9.806220	-0.004202	0.002298	-0.002445									
17781	467440	-0.064013	0.202113	-9.814874	-0.005840	0.001170	-0.005062									
17782	467465	-0.066844	0.206675	-9.838834	-0.005648	-0.004745	0.001048									
17783	467490	-0.056830	0.209660	-9.838406	-0.005110	-0.001520	-0.002459	178.616257	0.352859	-50.675545						
17784	467515	-0.078887	0.219730	-9.833018	-0.003041	0.001940	-0.000839									
17785	467540	-0.048395	0.167965	-9.802958	-0.006510	0.002587	0.000381									
17786	467565	-0.074201	0.221053	-9.822973	-0.004752	0.001322	-0.002761									
17787	467590	-0.047166	0.192839	-9.819267	-0.002418	0.002399	0.000693	178.617325	0.351394	-50.675877						
17788	467615	-0.071051	0.194944	-9.816751	-0.006884	0.001730	-0.005248									
17789	467640	-0.075869	0.195239	-9.807136	-0.009881	0.002269	-0.000694									
17790	467665	-0.055987	0.204505	-9.806766	-0.009045	-0.000036	0.001720									
17791	467690	-0.071638	0.198633	-9.814356	-0.002731	-0.004251	-0.004014	178.616699	0.351168	-50.673958						
17792	467715	-0.070738	0.206882	-9.824429	-0.003891	-0.003815	-0.001256									
17793	467740	-0.062219	0.174186	-9.821110	-0.003590	-0.001499	-0.006048									
17794	467765	-0.079392	0.213276	-9.810957	-0.007728	0.002956	0.000267									
17795	467790	-0.062669	0.200454	-9.801934	-0.002860	-0.000197	-0.003478	178.617584	0.351278	-50.673538						
17796	467815	-0.064270	0.191871	-9.830211	-0.003830	0.000174	-0.004885									
17797	467840	-0.048523	0.183512	-9.825494	-0.007829	-0.002596	-0.000916									
17798	467865	-0.068270	0.203745	-9.830673	-0.007714	-0.001886	0.000557									
17799	467890	-0.065952	0.198140	-9.810071	-0.002788	-0.004317	-0.001581	178.617859	0.352244	-50.674122						
17800	467915	-0.072060	0.197331	-9.820101	-0.005268	-0.002751	-0.003554									
17801	467940	-0.038457	0.184498	-9.820267	-0.008415	0.004555	0.001937									
17802	467965	-0.055299	0.187427	-9.810119	-0.003198	0.000182	-0.005658									
17803	467990	-0.088566	0.205451	-9.772565	-0.009017	0.003186	-0.000565	178.617615	0.351236	-50.670792						
17804	468015	-0.068259	0.193907	-9.809102	-0.007835	-0.002146	-0.001749									
17805	468040	-0.062308	0.179398	-9.817752	-0.007261	0.000319	0.001726									
17806	468065	-0.046234	0.186084	-9.807285	-0.005774	-0.000630	-0.002517									
17807	468090	-0.061489	0.192700	-9.818719	-0.004333	0.000039	-0.003028	178.617462	0.351306	-50.668545						
17808	468115	-0.054626	0.211714	-9.814444	-0.007008	-0.000334	-0.003530									
17809	468140	-0.032554	0.175458	-9.847137	-0.006548	-0.000380	-0.000526									
17810	468165	-0.058565	0.217283	-9.811070	-0.005339	-0.004037	0.001052									
17811	468190	-0.056540	0.215546	-9.822111	-0.001867	-0.003274	-0.004652	178.617966	0.352193	-50.671234						
17812	468215	-0.065617	0.168760	-9.806231	-0.005180	-0.005713	-0.003952									
17813	468240	-0.069108	0.194017	-9.819153	-0.005546	0.000010	-0.006358									
17814	468265	-0.061754	0.207863	-9.817759	-0.004795	-0.003710	-0.003815									
17815	468290	-0.050906	0.191987	-9.827881	-0.001472	-0.001524	-0.003557	178.619003	0.353526	-50.667355						
17816	468315	-0.058926	0.208662	-9.804824	-0.006017	0.000979	-0.001287									
17817	468340	-0.082148	0.219930	-9.846904	-0.007270	0.000642	0.001982									
17818	468365	-0.052411	0.202231	-9.848493	-0.001130	-0.001965	0.000282									
17819	468390	-0.047258	0.199433	-9.816867	-0.000805	0.003976	0.000568	178.620270	0.352706	-50.667110						
17820	468415	-0.056709	0.187544	-9.819701	-0.005035	-0.004101	-0.004008									
17821	468440	-0.065453	0.202994	-9.811028	-0.007696	0.001660	-0.000066									
17822	468465	-0.065863	0.188671	-9.806230	-0.007024	-0.003812	-0.003871									
17823	468490	-0.071269	0.202199	-9.796140	-0.005627	0.001584	0.005695	178.620087	0.353089	-50.666420						
17824	468515	-0.033364	0.204446	-9.849545	-0.005899	-0.000827	-0.001690									
17825	468540	-0.088254	0.235457	-9.813801	-0.004150	0.000820	0.000758									
17826	468565	-0.074062	0.216542	-9.839270	-0.004777	-0.001830	-0.000472									
17827	468590	-0.051419	0.198907	-9.842260	-0.008747	0.002544	-0.001976	178.620178	0.352710	-50.668816						
17828	468615	-0.049768	0.204647	-9.819740	0.000933	-0.002766	-0.002547									
17829	468640	-0.066569	0.223976	-9.819661	-0.005594	0.005618	-0.006513									
17830	468665	-0.048155	0.206500	-9.841797	-0.005302	0.002666	-0.000067									
17831	468690	-0.061971	0.204561	-9.846992	-0.008154	-0.000019	-0.000006	178.621048	0.351660	-50.666164						
17832	468715	-0.078634	0.218329	-9.803778	-0.007933	-0.005184	-0.002468									
17833	468740	-0.071774	0.216758	-9.818181	-0.005332	0.001568	-0.000773									
17834	468765	-0.050670	0.194321	-9.792881	-0.002138	0.003694	-0.002116									
17835	468790	-0.064186	0.211000	-9.807685	-0.005870	-0.000253	-0.007118	178.621460	0.351436	-50.665100						
17836	468815	-0.048583	0.198333	-9.838913	-0.002848	-0.000390	-0.003421									
17837	468840	-0.049189	0.197503	-9.814464	-0.002804	0.000787	0.001842									
17838	468865	-0.076060	0.203230	-9.808579	-0.002272	-0.004303	-0.001259									
17839	468890	-0.040684	0.202416	-9.815470	-0.004792	-0.001377	0.000033	178.623093	0.351911	-50.664738						
17840	468915	-0.059956	0.198845	-9.848444	-0.002812	0.000519	-0.001240									
17841	468940	-0.093032	0.207063	-9.820477	-0.008099	0.004753	0.002326									
17842	468965	-0.072401	0.194299	-9.833044	-0.013590	-0.000189	-0.001848									
17843	468990	-0.072103	0.223880	-9.787514	-0.006311	-0.002058	-0.003991	178.622147	0.351201	-50.663654						
17844	469015	-0.071853	0.215709	-9.811483	-0.003642	-0.001428	-0.001369									
17845	469040	-0.072521	0.203211	-9.834960	-0.004411	-0.003575	-0.003687									
17846	469065	-0.060898	0.209919	-9.794751	-0.005043	0.002281	-0.003907									
17847	469090	-0.044232	0.184935	-9.826473	-0.004363	-0.002860	-0.001189	178.623093	0.351740	-50.659683						
17848	469115	-0.064968	0.217866	-9.852257	-0.006501	-0.001863	-0.000598									
17849	469140	-0.079774	0.197642	-9.814795	-0.007467	-0.005554	0.000922									
17850	469165	-0.071678	0.206800	-9.814837	-0.007853	0.000429	-0.003532									
17851	469190	-0.080243	0.209065	-9.818144	-0.008361	0.002156	-0.004157	178.622223	0.352165	-50.658894						
17852	469215	-0.063719	0.207532	-9.797141	-0.006607	-0.000712	-0.003922									
17853	469240	-0.065403	0.205222	-9.838836	-0.002782	-0.004315	0.000148									
17854	469265	-0.082641	0.208166	-9.822448	-0.008310	-0.002721	0.004846									
17855	469290	-0.051780	0.219056	-9.826448	-0.005226	-0.000176	-0.005394	178.622391	0.353020	-50.654747						
17856	469315	-0.060936	0.225536	-9.822090	-0.008187	-0.001049	0.000048									
17857	469340	-0.039204	0.198658	-9.818838	-0.004198	-0.000282	-0.002708									
17858	469365	-0.058470	0.223399	-9.836479	-0.006604	-0.002770	-0.002010									
17859	469390	-0.064415	0.196943	-9.818229	-0.006224	-0.002636	-0.002718	178.622238	0.353723	-50.658039						
17860	469415	-0.056283	0.186360	-9.801486	-0.007294	0.001283	0.000255									
17861	469440	-0.048393	0.196394	-9.801529	-0.004511	-0.004350	-0.002217									
17862	469465	-0.054728	0.190983	-9.826420	-0.004712	0.000632	0.006577									
17863	469490	-0.038491	0.189515	-9.840878	-0.005634	-0.000685	0.002097	178.622498	0.353855	-50.658405						
17864	469515	-0.054825	0.196773	-9.828825	-0.009985	-0.000958	-0.002506									
17865	469540	-0.047843	0.190457	-9.788583	-0.003017	-0.001097	-0.003104									
17866	469565	-0.081147	0.214820	-9.853138	-0.007485	-0.003177	-0.001375									
17867	469590	-0.051759	0.203115	-9.870061	-0.005846	0.001363	-0.004815	178.622177	0.354157	-50.655758						
17868	469615	-0.061858	0.193387	-9.835969	-0.002888	0.001171	0.000820									
17869	469640	-0.059004	0.187991	-9.818719	-0.003304	0.004321	-0.000507									
17870	469665	-0.038619	0.182904	-9.809724	-0.005637	-0.003202	-0.001055									
17871	469690	-0.091100	0.213624	-9.845902	-0.008059	-0.001182	-0.002448	178.622787	0.353719	-50.656666						
17872	469715	-0.071112	0.212776	-9.840239	-0.000221	0.001594	-0.001940									
17873	469740	-0.075451	0.214181	-9.840223	-0.005001	-0.000617	-0.000018									
17874	469765	-0.057505	0.213080	-9.815865	-0.000939	-0.002088	-0.002089									
17875	469790	-0.055581	0.180677	-9.833130	-0.007649	-0.003885	0.000352	178.624252	0.354157	-50.656548						
17876	469815	-0.061892	0.193406	-9.834054	-0.006844	0.000834	-0.001669									
17877	469840	-0.055760	0.191758	-9.813478	-0.006212	0.001375	0.003704									
17878	469865	-0.055604	0.203844	-9.796700	-0.005923	0.000526	0.000957									
17879	469890	-0.030134	0.209073	-9.838065	-0.006691	-0.001821	-0.001302	178.624023	0.353729	-50.656624						
17880	469915	-0.053514	0.194646	-9.818284	-0.002950	-0.004709	0.003481									
17881	469940	-0.065490	0.204956	-9.818225	-0.002420	-0.003487	-0.000423									
17882	469965	-0.063859	0.217017	-9.796659	-0.005959	-0.000845	-0.003536									
17883	469990	-0.051988	0.190753	-9.808222	-0.006805	-0.000075	0.001396	178.624878	0.354740	-50.657955						
17884	470015	-0.080259	0.214498	-9.833972	-0.002380	-0.002907	-0.003108									
17885	470040	-0.048849	0.214773	-9.821661	-0.009678	0.002065	-0.000440									
